workerid,trial_no,stim,trial_id,Answer.time_in_minutes,rt,response,word_idx,response_correct,slide_number_in_experiment,word
0,,0,,21.522866666666665,,Jennifer,,,bot_check,
0,0,,filler_1,21.522866666666665,530,,0,1,,I
0,0,,filler_1,21.522866666666665,391,,1,1,,drove
0,0,,filler_1,21.522866666666665,363,,2,1,,to
0,0,,filler_1,21.522866666666665,346,,3,1,,the
0,0,,filler_1,21.522866666666665,376,,4,1,,mall
0,0,,filler_1,21.522866666666665,359,,5,1,,yesterday.
0,0,,filler_1,21.522866666666665,667,,6,1,,I
0,0,,filler_1,21.522866666666665,420,,7,1,,stayed
0,0,,filler_1,21.522866666666665,716,,8,1,,in
0,0,,filler_1,21.522866666666665,380,,9,1,,the
0,0,,filler_1,21.522866666666665,386,,10,1,,Apple
0,0,,filler_1,21.522866666666665,391,,11,1,,store
0,0,,filler_1,21.522866666666665,375,,12,1,,for
0,0,,filler_1,21.522866666666665,388,,13,1,,one
0,0,,filler_1,21.522866666666665,1409,,14,1,,hour
0,0,,filler_1,21.522866666666665,506,,15,1,,while
0,0,,filler_1,21.522866666666665,681,,16,1,,looking
0,0,,filler_1,21.522866666666665,443,,17,1,,at
0,0,,filler_1,21.522866666666665,384,,18,1,,a
0,0,,filler_1,21.522866666666665,411,,19,1,,new
0,0,,filler_1,21.522866666666665,417,,20,1,,iMac
0,0,,filler_1,21.522866666666665,370,,21,1,,before
0,0,,filler_1,21.522866666666665,419,,22,1,,stopping
0,0,,filler_1,21.522866666666665,421,,23,1,,at
0,0,,filler_1,21.522866666666665,707,,24,1,,JC
0,0,,filler_1,21.522866666666665,503,,25,1,,Penny's
0,0,,filler_1,21.522866666666665,446,,26,1,,on
0,0,,filler_1,21.522866666666665,377,,27,1,,the
0,0,,filler_1,21.522866666666665,411,,28,1,,way
0,0,,filler_1,21.522866666666665,449,,29,1,,home.
0,1,,filler_64,21.522866666666665,580,,0,1,,As
0,1,,filler_64,21.522866666666665,461,,1,1,,the
0,1,,filler_64,21.522866666666665,430,,2,1,,editor
0,1,,filler_64,21.522866666666665,416,,3,1,,of
0,1,,filler_64,21.522866666666665,445,,4,1,,the
0,1,,filler_64,21.522866666666665,338,,5,1,,"newspaper,"
0,1,,filler_64,21.522866666666665,424,,6,1,,I
0,1,,filler_64,21.522866666666665,373,,7,1,,have
0,1,,filler_64,21.522866666666665,396,,8,1,,to
0,1,,filler_64,21.522866666666665,365,,9,1,,make
0,1,,filler_64,21.522866666666665,349,,10,1,,sure
0,1,,filler_64,21.522866666666665,344,,11,1,,that
0,1,,filler_64,21.522866666666665,538,,12,1,,the
0,1,,filler_64,21.522866666666665,414,,13,1,,paper
0,1,,filler_64,21.522866666666665,375,,14,1,,does
0,1,,filler_64,21.522866666666665,351,,15,1,,not
0,1,,filler_64,21.522866666666665,557,,16,1,,publish
0,1,,filler_64,21.522866666666665,467,,17,1,,anything
0,1,,filler_64,21.522866666666665,372,,18,1,,that
0,1,,filler_64,21.522866666666665,398,,19,1,,is
0,1,,filler_64,21.522866666666665,438,,20,1,,offensive.
0,1,,filler_64,21.522866666666665,383,,21,1,,"Unfortunately,"
0,1,,filler_64,21.522866666666665,375,,22,1,,a
0,1,,filler_64,21.522866666666665,321,,23,1,,disgruntled
0,1,,filler_64,21.522866666666665,341,,24,1,,writer
0,1,,filler_64,21.522866666666665,266,,25,1,,slipped
0,1,,filler_64,21.522866666666665,493,,26,1,,a
0,1,,filler_64,21.522866666666665,383,,27,1,,racial
0,1,,filler_64,21.522866666666665,384,,28,1,,slur
0,1,,filler_64,21.522866666666665,260,,29,1,,into
0,1,,filler_64,21.522866666666665,195,,30,1,,an
0,1,,filler_64,21.522866666666665,189,,31,1,,article
0,1,,filler_64,21.522866666666665,214,,32,1,,last
0,1,,filler_64,21.522866666666665,273,,33,1,,week.
0,1,,filler_64,21.522866666666665,202,,34,1,,I
0,1,,filler_64,21.522866666666665,261,,35,1,,issued
0,1,,filler_64,21.522866666666665,213,,36,1,,a
0,1,,filler_64,21.522866666666665,238,,37,1,,long
0,1,,filler_64,21.522866666666665,229,,38,1,,apology
0,1,,filler_64,21.522866666666665,234,,39,1,,on
0,1,,filler_64,21.522866666666665,231,,40,1,,the
0,1,,filler_64,21.522866666666665,208,,41,1,,front
0,1,,filler_64,21.522866666666665,197,,42,1,,page
0,1,,filler_64,21.522866666666665,378,,43,1,,of
0,1,,filler_64,21.522866666666665,196,,44,1,,the
0,1,,filler_64,21.522866666666665,207,,45,1,,paper
0,1,,filler_64,21.522866666666665,390,,46,1,,the
0,1,,filler_64,21.522866666666665,389,,47,1,,next
0,1,,filler_64,21.522866666666665,379,,48,1,,day.
0,2,,filler_59,21.522866666666665,381,,0,1,,I
0,2,,filler_59,21.522866666666665,376,,1,1,,was
0,2,,filler_59,21.522866666666665,543,,2,1,,swimming
0,2,,filler_59,21.522866666666665,339,,3,1,,laps
0,2,,filler_59,21.522866666666665,351,,4,1,,in
0,2,,filler_59,21.522866666666665,354,,5,1,,my
0,2,,filler_59,21.522866666666665,389,,6,1,,local
0,2,,filler_59,21.522866666666665,406,,7,1,,pool
0,2,,filler_59,21.522866666666665,333,,8,1,,when
0,2,,filler_59,21.522866666666665,320,,9,1,,I
0,2,,filler_59,21.522866666666665,348,,10,1,,noticed
0,2,,filler_59,21.522866666666665,341,,11,1,,something
0,2,,filler_59,21.522866666666665,420,,12,1,,at
0,2,,filler_59,21.522866666666665,2034,,13,1,,the
0,2,,filler_59,21.522866666666665,441,,14,1,,bottom.
0,2,,filler_59,21.522866666666665,487,,15,1,,When
0,2,,filler_59,21.522866666666665,382,,16,1,,I
0,2,,filler_59,21.522866666666665,335,,17,1,,dove
0,2,,filler_59,21.522866666666665,391,,18,1,,"down,"
0,2,,filler_59,21.522866666666665,383,,19,1,,I
0,2,,filler_59,21.522866666666665,419,,20,1,,realized
0,2,,filler_59,21.522866666666665,337,,21,1,,it
0,2,,filler_59,21.522866666666665,368,,22,1,,was
0,2,,filler_59,21.522866666666665,375,,23,1,,a
0,2,,filler_59,21.522866666666665,743,,24,1,,twenty-dollar
0,2,,filler_59,21.522866666666665,304,,25,1,,bill.
0,2,,filler_59,21.522866666666665,295,,26,1,,Nobody
0,2,,filler_59,21.522866666666665,336,,27,1,,claimed
0,2,,filler_59,21.522866666666665,366,,28,1,,it
0,2,,filler_59,21.522866666666665,373,,29,1,,when
0,2,,filler_59,21.522866666666665,256,,30,1,,I
0,2,,filler_59,21.522866666666665,500,,31,1,,asked
0,2,,filler_59,21.522866666666665,1,,32,1,,the
0,2,,filler_59,21.522866666666665,205,,33,1,,people
0,2,,filler_59,21.522866666666665,459,,34,1,,"nearby,"
0,2,,filler_59,21.522866666666665,348,,35,1,,so
0,2,,filler_59,21.522866666666665,296,,36,1,,I
0,2,,filler_59,21.522866666666665,416,,37,1,,kept
0,2,,filler_59,21.522866666666665,321,,38,1,,it.
0,3,,filler_61,21.522866666666665,378,,0,1,,When
0,3,,filler_61,21.522866666666665,313,,1,1,,I
0,3,,filler_61,21.522866666666665,378,,2,1,,talked
0,3,,filler_61,21.522866666666665,759,,3,1,,to
0,3,,filler_61,21.522866666666665,421,,4,1,,my
0,3,,filler_61,21.522866666666665,362,,5,1,,parents
0,3,,filler_61,21.522866666666665,396,,6,1,,"yesterday,"
0,3,,filler_61,21.522866666666665,406,,7,1,,they
0,3,,filler_61,21.522866666666665,395,,8,1,,told
0,3,,filler_61,21.522866666666665,399,,9,1,,me
0,3,,filler_61,21.522866666666665,319,,10,1,,that
0,3,,filler_61,21.522866666666665,381,,11,1,,they
0,3,,filler_61,21.522866666666665,364,,12,1,,did
0,3,,filler_61,21.522866666666665,348,,13,1,,not
0,3,,filler_61,21.522866666666665,354,,14,1,,pay
0,3,,filler_61,21.522866666666665,401,,15,1,,taxes
0,3,,filler_61,21.522866666666665,365,,16,1,,this
0,3,,filler_61,21.522866666666665,365,,17,1,,year.
0,3,,filler_61,21.522866666666665,350,,18,1,,They
0,3,,filler_61,21.522866666666665,355,,19,1,,have
0,3,,filler_61,21.522866666666665,359,,20,1,,decided
0,3,,filler_61,21.522866666666665,365,,21,1,,that
0,3,,filler_61,21.522866666666665,362,,22,1,,all
0,3,,filler_61,21.522866666666665,389,,23,1,,taxation
0,3,,filler_61,21.522866666666665,368,,24,1,,is
0,3,,filler_61,21.522866666666665,363,,25,1,,theft.
0,3,,filler_61,21.522866666666665,334,,26,1,,I
0,3,,filler_61,21.522866666666665,326,,27,1,,am
0,3,,filler_61,21.522866666666665,310,,28,1,,worried
0,3,,filler_61,21.522866666666665,304,,29,1,,about
0,3,,filler_61,21.522866666666665,339,,30,1,,their
0,3,,filler_61,21.522866666666665,310,,31,1,,"decision,"
0,3,,filler_61,21.522866666666665,300,,32,1,,since
0,3,,filler_61,21.522866666666665,345,,33,1,,they
0,3,,filler_61,21.522866666666665,364,,34,1,,might
0,3,,filler_61,21.522866666666665,311,,35,1,,go
0,3,,filler_61,21.522866666666665,280,,36,1,,to
0,3,,filler_61,21.522866666666665,381,,37,1,,prison.
0,4,,filler_35,21.522866666666665,357,,0,1,,My
0,4,,filler_35,21.522866666666665,212,,1,1,,grandparents
0,4,,filler_35,21.522866666666665,192,,2,1,,have
0,4,,filler_35,21.522866666666665,298,,3,1,,a
0,4,,filler_35,21.522866666666665,202,,4,1,,clock
0,4,,filler_35,21.522866666666665,195,,5,1,,that
0,4,,filler_35,21.522866666666665,385,,6,1,,imitates
0,4,,filler_35,21.522866666666665,181,,7,1,,birdcalls.
0,4,,filler_35,21.522866666666665,589,,8,1,,"Sometimes,"
0,4,,filler_35,21.522866666666665,318,,9,1,,when
0,4,,filler_35,21.522866666666665,208,,10,1,,it
0,4,,filler_35,21.522866666666665,189,,11,1,,strikes
0,4,,filler_35,21.522866666666665,378,,12,1,,the
0,4,,filler_35,21.522866666666665,196,,13,1,,"hour,"
0,4,,filler_35,21.522866666666665,180,,14,1,,I
0,4,,filler_35,21.522866666666665,618,,15,1,,think
0,4,,filler_35,21.522866666666665,384,,16,1,,there
0,4,,filler_35,21.522866666666665,386,,17,1,,is
0,4,,filler_35,21.522866666666665,701,,18,1,,a
0,4,,filler_35,21.522866666666665,109,,19,1,,rare
0,4,,filler_35,21.522866666666665,432,,20,1,,bird
0,4,,filler_35,21.522866666666665,473,,21,1,,nearby.
0,5,,filler_2,21.522866666666665,460,,0,1,,Tonight
0,5,,filler_2,21.522866666666665,287,,1,1,,I
0,5,,filler_2,21.522866666666665,377,,2,1,,will
0,5,,filler_2,21.522866666666665,310,,3,1,,watch
0,5,,filler_2,21.522866666666665,260,,4,1,,my
0,5,,filler_2,21.522866666666665,220,,5,1,,favorite
0,5,,filler_2,21.522866666666665,313,,6,1,,television
0,5,,filler_2,21.522866666666665,331,,7,1,,show.
0,5,,filler_2,21.522866666666665,303,,8,1,,It
0,5,,filler_2,21.522866666666665,286,,9,1,,is
0,5,,filler_2,21.522866666666665,318,,10,1,,about
0,5,,filler_2,21.522866666666665,288,,11,1,,people
0,5,,filler_2,21.522866666666665,328,,12,1,,who
0,5,,filler_2,21.522866666666665,298,,13,1,,travel
0,5,,filler_2,21.522866666666665,402,,14,1,,through
0,5,,filler_2,21.522866666666665,287,,15,1,,time
0,5,,filler_2,21.522866666666665,444,,16,1,,in
0,5,,filler_2,21.522866666666665,196,,17,1,,a
0,5,,filler_2,21.522866666666665,411,,18,1,,telephone
0,5,,filler_2,21.522866666666665,496,,19,1,,box.
0,5,,filler_2,21.522866666666665,521,,20,1,,They
0,5,,filler_2,21.522866666666665,519,,21,1,,have
0,5,,filler_2,21.522866666666665,377,,22,1,,a
0,5,,filler_2,21.522866666666665,610,,23,1,,robot
0,5,,filler_2,21.522866666666665,681,,24,1,,dog.
0,6,,liquor_cs,21.522866666666665,399,,0,1,,After
0,6,,liquor_cs,21.522866666666665,383,,1,1,,the
0,6,,liquor_cs,21.522866666666665,363,,2,1,,babysitter
0,6,,liquor_cs,21.522866666666665,360,,3,1,,"left,"
0,6,,liquor_cs,21.522866666666665,417,,4,1,,I
0,6,,liquor_cs,21.522866666666665,380,,5,1,,carefully
0,6,,liquor_cs,21.522866666666665,685,,6,1,,examined
0,6,,liquor_cs,21.522866666666665,372,,7,1,,my
0,6,,liquor_cs,21.522866666666665,494,,8,1,,liquor
0,6,,liquor_cs,21.522866666666665,599,,9,1,,collection.
0,6,,liquor_cs,21.522866666666665,788,,10,1,,Some
0,6,,liquor_cs,21.522866666666665,393,,11,1,,of
0,6,,liquor_cs,21.522866666666665,358,,12,1,,my
0,6,,liquor_cs,21.522866666666665,393,,13,1,,new
0,6,,liquor_cs,21.522866666666665,359,,14,1,,bottles
0,6,,liquor_cs,21.522866666666665,280,,15,1,,of
0,6,,liquor_cs,21.522866666666665,235,,16,1,,peach
0,6,,liquor_cs,21.522866666666665,224,,17,1,,schnapps
0,6,,liquor_cs,21.522866666666665,478,,18,1,,were
0,6,,liquor_cs,21.522866666666665,288,,19,1,,opened.
0,6,,liquor_cs,21.522866666666665,219,,20,1,,In
0,6,,liquor_cs,21.522866666666665,234,,21,1,,"fact,"
0,6,,liquor_cs,21.522866666666665,222,,22,1,,they
0,6,,liquor_cs,21.522866666666665,193,,23,1,,all
0,6,,liquor_cs,21.522866666666665,193,,24,1,,were
0,6,,liquor_cs,21.522866666666665,191,,25,1,,but
0,6,,liquor_cs,21.522866666666665,192,,26,1,,I
0,6,,liquor_cs,21.522866666666665,340,,27,1,,decided
0,6,,liquor_cs,21.522866666666665,198,,28,1,,not
0,6,,liquor_cs,21.522866666666665,227,,29,1,,to
0,6,,liquor_cs,21.522866666666665,179,,30,1,,call
0,6,,liquor_cs,21.522866666666665,204,,31,1,,her
0,6,,liquor_cs,21.522866666666665,189,,32,1,,parents
0,6,,liquor_cs,21.522866666666665,204,,33,1,,because
0,6,,liquor_cs,21.522866666666665,217,,34,1,,it
0,6,,liquor_cs,21.522866666666665,230,,35,1,,was
0,6,,liquor_cs,21.522866666666665,220,,36,1,,so
0,6,,liquor_cs,21.522866666666665,222,,37,1,,hard
0,6,,liquor_cs,21.522866666666665,272,,38,1,,to
0,6,,liquor_cs,21.522866666666665,219,,39,1,,find
0,6,,liquor_cs,21.522866666666665,355,,40,1,,a
0,6,,liquor_cs,21.522866666666665,491,,41,1,,babysitter.
0,7,,disney_lw,21.522866666666665,764,,0,1,,When
0,7,,disney_lw,21.522866666666665,424,,1,1,,I
0,7,,disney_lw,21.522866666666665,327,,2,1,,visited
0,7,,disney_lw,21.522866666666665,268,,3,1,,Disney
0,7,,disney_lw,21.522866666666665,389,,4,1,,"World,"
0,7,,disney_lw,21.522866666666665,236,,5,1,,I
0,7,,disney_lw,21.522866666666665,181,,6,1,,quickly
0,7,,disney_lw,21.522866666666665,189,,7,1,,walked
0,7,,disney_lw,21.522866666666665,198,,8,1,,around
0,7,,disney_lw,21.522866666666665,193,,9,1,,the
0,7,,disney_lw,21.522866666666665,779,,10,1,,amusement
0,7,,disney_lw,21.522866666666665,192,,11,1,,park.
0,7,,disney_lw,21.522866666666665,204,,12,1,,Only
0,7,,disney_lw,21.522866666666665,453,,13,1,,some
0,7,,disney_lw,21.522866666666665,188,,14,1,,of
0,7,,disney_lw,21.522866666666665,223,,15,1,,my
0,7,,disney_lw,21.522866666666665,213,,16,1,,favorite
0,7,,disney_lw,21.522866666666665,206,,17,1,,rides
0,7,,disney_lw,21.522866666666665,211,,18,1,,were
0,7,,disney_lw,21.522866666666665,202,,19,1,,still
0,7,,disney_lw,21.522866666666665,195,,20,1,,running.
0,7,,disney_lw,21.522866666666665,212,,21,1,,The
0,7,,disney_lw,21.522866666666665,208,,22,1,,rest
0,7,,disney_lw,21.522866666666665,286,,23,1,,were
0,7,,disney_lw,21.522866666666665,225,,24,1,,shut_down
0,7,,disney_lw,21.522866666666665,220,,25,1,,since
0,7,,disney_lw,21.522866666666665,203,,26,1,,they
0,7,,disney_lw,21.522866666666665,227,,27,1,,were
0,7,,disney_lw,21.522866666666665,232,,28,1,,no
0,7,,disney_lw,21.522866666666665,214,,29,1,,longer
0,7,,disney_lw,21.522866666666665,234,,30,1,,popular.
0,8,,filler_22,21.522866666666665,216,,0,1,,I
0,8,,filler_22,21.522866666666665,191,,1,1,,can't
0,8,,filler_22,21.522866666666665,236,,2,1,,stand
0,8,,filler_22,21.522866666666665,216,,3,1,,fruit-flavored
0,8,,filler_22,21.522866666666665,228,,4,1,,candy.
0,8,,filler_22,21.522866666666665,522,,5,1,,I
0,8,,filler_22,21.522866666666665,199,,6,1,,make
0,8,,filler_22,21.522866666666665,187,,7,1,,exceptions
0,8,,filler_22,21.522866666666665,218,,8,1,,for
0,8,,filler_22,21.522866666666665,262,,9,1,,lemon
0,8,,filler_22,21.522866666666665,217,,10,1,,lollipops
0,8,,filler_22,21.522866666666665,204,,11,1,,and
0,8,,filler_22,21.522866666666665,382,,12,1,,chewy
0,8,,filler_22,21.522866666666665,187,,13,1,,"candy,"
0,8,,filler_22,21.522866666666665,192,,14,1,,though.
0,9,,filler_26,21.522866666666665,453,,0,1,,This
0,9,,filler_26,21.522866666666665,484,,1,1,,summer
0,9,,filler_26,21.522866666666665,223,,2,1,,I
0,9,,filler_26,21.522866666666665,221,,3,1,,will
0,9,,filler_26,21.522866666666665,202,,4,1,,not
0,9,,filler_26,21.522866666666665,228,,5,1,,have
0,9,,filler_26,21.522866666666665,377,,6,1,,air
0,9,,filler_26,21.522866666666665,221,,7,1,,conditioning
0,9,,filler_26,21.522866666666665,255,,8,1,,in
0,9,,filler_26,21.522866666666665,221,,9,1,,my
0,9,,filler_26,21.522866666666665,221,,10,1,,house.
0,9,,filler_26,21.522866666666665,204,,11,1,,I
0,9,,filler_26,21.522866666666665,372,,12,1,,prefer
0,9,,filler_26,21.522866666666665,221,,13,1,,the
0,9,,filler_26,21.522866666666665,206,,14,1,,weather
0,9,,filler_26,21.522866666666665,415,,15,1,,in
0,9,,filler_26,21.522866666666665,208,,16,1,,"Massachusetts,"
0,9,,filler_26,21.522866666666665,391,,17,1,,where
0,9,,filler_26,21.522866666666665,262,,18,1,,it
0,9,,filler_26,21.522866666666665,252,,19,1,,is
0,9,,filler_26,21.522866666666665,221,,20,1,,colder.
0,9,,filler_26,21.522866666666665,496,,21,1,,New
0,9,,filler_26,21.522866666666665,787,,22,1,,England
0,9,,filler_26,21.522866666666665,221,,23,1,,weather
0,9,,filler_26,21.522866666666665,495,,24,1,,is
0,9,,filler_26,21.522866666666665,370,,25,1,,always
0,9,,filler_26,21.522866666666665,323,,26,1,,colder
0,9,,filler_26,21.522866666666665,378,,27,1,,in
0,9,,filler_26,21.522866666666665,248,,28,1,,the
0,9,,filler_26,21.522866666666665,429,,29,1,,summer.
0,10,,portfolio_ls,21.522866666666665,430,,0,1,,While
0,10,,portfolio_ls,21.522866666666665,459,,1,1,,eating
0,10,,portfolio_ls,21.522866666666665,362,,2,1,,"breakfast,"
0,10,,portfolio_ls,21.522866666666665,364,,3,1,,I
0,10,,portfolio_ls,21.522866666666665,334,,4,1,,had
0,10,,portfolio_ls,21.522866666666665,381,,5,1,,lots
0,10,,portfolio_ls,21.522866666666665,427,,6,1,,of
0,10,,portfolio_ls,21.522866666666665,409,,7,1,,time
0,10,,portfolio_ls,21.522866666666665,335,,8,1,,to
0,10,,portfolio_ls,21.522866666666665,336,,9,1,,pore
0,10,,portfolio_ls,21.522866666666665,341,,10,1,,over
0,10,,portfolio_ls,21.522866666666665,310,,11,1,,the
0,10,,portfolio_ls,21.522866666666665,328,,12,1,,stock
0,10,,portfolio_ls,21.522866666666665,310,,13,1,,prices
0,10,,portfolio_ls,21.522866666666665,347,,14,1,,from
0,10,,portfolio_ls,21.522866666666665,392,,15,1,,yesterday.
0,10,,portfolio_ls,21.522866666666665,265,,16,1,,Only
0,10,,portfolio_ls,21.522866666666665,317,,17,1,,some
0,10,,portfolio_ls,21.522866666666665,356,,18,1,,of
0,10,,portfolio_ls,21.522866666666665,311,,19,1,,my
0,10,,portfolio_ls,21.522866666666665,233,,20,1,,stocks
0,10,,portfolio_ls,21.522866666666665,231,,21,1,,went
0,10,,portfolio_ls,21.522866666666665,223,,22,1,,up.
0,10,,portfolio_ls,21.522866666666665,314,,23,1,,The
0,10,,portfolio_ls,21.522866666666665,409,,24,1,,others
0,10,,portfolio_ls,21.522866666666665,27,,25,1,,were
0,10,,portfolio_ls,21.522866666666665,226,,26,1,,relatively
0,10,,portfolio_ls,21.522866666666665,512,,27,1,,steady
0,10,,portfolio_ls,21.522866666666665,348,,28,1,,but
0,10,,portfolio_ls,21.522866666666665,250,,29,1,,my
0,10,,portfolio_ls,21.522866666666665,263,,30,1,,portfolio
0,10,,portfolio_ls,21.522866666666665,212,,31,1,,was
0,10,,portfolio_ls,21.522866666666665,232,,32,1,,still
0,10,,portfolio_ls,21.522866666666665,333,,33,1,,down
0,10,,portfolio_ls,21.522866666666665,320,,34,1,,for
0,10,,portfolio_ls,21.522866666666665,309,,35,1,,the
0,10,,portfolio_ls,21.522866666666665,279,,36,1,,year.
0,11,,filler_36,21.522866666666665,407,,0,1,,I
0,11,,filler_36,21.522866666666665,226,,1,1,,planned
0,11,,filler_36,21.522866666666665,293,,2,1,,to
0,11,,filler_36,21.522866666666665,252,,3,1,,have
0,11,,filler_36,21.522866666666665,252,,4,1,,a
0,11,,filler_36,21.522866666666665,249,,5,1,,picnic
0,11,,filler_36,21.522866666666665,250,,6,1,,in
0,11,,filler_36,21.522866666666665,317,,7,1,,the
0,11,,filler_36,21.522866666666665,230,,8,1,,park.
0,11,,filler_36,21.522866666666665,225,,9,1,,The
0,11,,filler_36,21.522866666666665,221,,10,1,,weather
0,11,,filler_36,21.522866666666665,224,,11,1,,forecast
0,11,,filler_36,21.522866666666665,442,,12,1,,predicted
0,11,,filler_36,21.522866666666665,177,,13,1,,"rain,"
0,11,,filler_36,21.522866666666665,382,,14,1,,so
0,11,,filler_36,21.522866666666665,278,,15,1,,I
0,11,,filler_36,21.522866666666665,218,,16,1,,thought
0,11,,filler_36,21.522866666666665,198,,17,1,,I
0,11,,filler_36,21.522866666666665,202,,18,1,,would
0,11,,filler_36,21.522866666666665,215,,19,1,,have
0,11,,filler_36,21.522866666666665,295,,20,1,,to
0,11,,filler_36,21.522866666666665,264,,21,1,,cancel
0,11,,filler_36,21.522866666666665,199,,22,1,,it.
0,11,,filler_36,21.522866666666665,528,,23,1,,"However,"
0,11,,filler_36,21.522866666666665,279,,24,1,,the
0,11,,filler_36,21.522866666666665,259,,25,1,,day
0,11,,filler_36,21.522866666666665,271,,26,1,,turned
0,11,,filler_36,21.522866666666665,341,,27,1,,out
0,11,,filler_36,21.522866666666665,329,,28,1,,sunny
0,11,,filler_36,21.522866666666665,325,,29,1,,after
0,11,,filler_36,21.522866666666665,636,,30,1,,all.
0,12,,damage_cs,21.522866666666665,365,,0,1,,I
0,12,,damage_cs,21.522866666666665,389,,1,1,,examined
0,12,,damage_cs,21.522866666666665,395,,2,1,,the
0,12,,damage_cs,21.522866666666665,341,,3,1,,damage
0,12,,damage_cs,21.522866666666665,378,,4,1,,after
0,12,,damage_cs,21.522866666666665,339,,5,1,,I
0,12,,damage_cs,21.522866666666665,352,,6,1,,dropped
0,12,,damage_cs,21.522866666666665,329,,7,1,,a
0,12,,damage_cs,21.522866666666665,321,,8,1,,bowling
0,12,,damage_cs,21.522866666666665,298,,9,1,,ball
0,12,,damage_cs,21.522866666666665,313,,10,1,,down
0,12,,damage_cs,21.522866666666665,340,,11,1,,the
0,12,,damage_cs,21.522866666666665,277,,12,1,,stairs.
0,12,,damage_cs,21.522866666666665,252,,13,1,,Some
0,12,,damage_cs,21.522866666666665,232,,14,1,,of
0,12,,damage_cs,21.522866666666665,227,,15,1,,the
0,12,,damage_cs,21.522866666666665,215,,16,1,,steps
0,12,,damage_cs,21.522866666666665,219,,17,1,,were
0,12,,damage_cs,21.522866666666665,208,,18,1,,damaged.
0,12,,damage_cs,21.522866666666665,207,,19,1,,In
0,12,,damage_cs,21.522866666666665,189,,20,1,,"fact,"
0,12,,damage_cs,21.522866666666665,207,,21,1,,they
0,12,,damage_cs,21.522866666666665,228,,22,1,,all
0,12,,damage_cs,21.522866666666665,631,,23,1,,were
0,12,,damage_cs,21.522866666666665,240,,24,1,,so
0,12,,damage_cs,21.522866666666665,259,,25,1,,they
0,12,,damage_cs,21.522866666666665,224,,26,1,,will
0,12,,damage_cs,21.522866666666665,246,,27,1,,require
0,12,,damage_cs,21.522866666666665,292,,28,1,,extensive
0,12,,damage_cs,21.522866666666665,217,,29,1,,repairs.
0,13,,filler_24,21.522866666666665,326,,0,1,,I
0,13,,filler_24,21.522866666666665,233,,1,1,,love
0,13,,filler_24,21.522866666666665,15269,,2,1,,to
0,13,,filler_24,21.522866666666665,382,,3,1,,play
0,13,,filler_24,21.522866666666665,418,,4,1,,card
0,13,,filler_24,21.522866666666665,380,,5,1,,games
0,13,,filler_24,21.522866666666665,299,,6,1,,with
0,13,,filler_24,21.522866666666665,233,,7,1,,my
0,13,,filler_24,21.522866666666665,275,,8,1,,"friends,"
0,13,,filler_24,21.522866666666665,314,,9,1,,and
0,13,,filler_24,21.522866666666665,251,,10,1,,we
0,13,,filler_24,21.522866666666665,240,,11,1,,are
0,13,,filler_24,21.522866666666665,201,,12,1,,going
0,13,,filler_24,21.522866666666665,214,,13,1,,to
0,13,,filler_24,21.522866666666665,205,,14,1,,play
0,13,,filler_24,21.522866666666665,209,,15,1,,Hearts
0,13,,filler_24,21.522866666666665,195,,16,1,,tonight.
0,13,,filler_24,21.522866666666665,241,,17,1,,We
0,13,,filler_24,21.522866666666665,543,,18,1,,always
0,13,,filler_24,21.522866666666665,332,,19,1,,enjoy
0,13,,filler_24,21.522866666666665,219,,20,1,,playing
0,13,,filler_24,21.522866666666665,193,,21,1,,a
0,13,,filler_24,21.522866666666665,202,,22,1,,game
0,13,,filler_24,21.522866666666665,203,,23,1,,on
0,13,,filler_24,21.522866666666665,171,,24,1,,Sunday
0,13,,filler_24,21.522866666666665,204,,25,1,,evening.
0,13,,filler_24,21.522866666666665,203,,26,1,,After
0,13,,filler_24,21.522866666666665,1095,,27,1,,a
0,13,,filler_24,21.522866666666665,210,,28,1,,long
0,13,,filler_24,21.522866666666665,207,,29,1,,day
0,13,,filler_24,21.522866666666665,224,,30,1,,of
0,13,,filler_24,21.522866666666665,226,,31,1,,study
0,13,,filler_24,21.522866666666665,244,,32,1,,and
0,13,,filler_24,21.522866666666665,205,,33,1,,"rest,"
0,13,,filler_24,21.522866666666665,200,,34,1,,cards
0,13,,filler_24,21.522866666666665,231,,35,1,,are
0,13,,filler_24,21.522866666666665,240,,36,1,,the
0,13,,filler_24,21.522866666666665,239,,37,1,,perfect
0,13,,filler_24,21.522866666666665,254,,38,1,,way
0,13,,filler_24,21.522866666666665,406,,39,1,,to
0,13,,filler_24,21.522866666666665,405,,40,1,,relax.
0,14,,filler_14,21.522866666666665,683,,0,1,,Because
0,14,,filler_14,21.522866666666665,30,,1,1,,of
0,14,,filler_14,21.522866666666665,439,,2,1,,the
0,14,,filler_14,21.522866666666665,208,,3,1,,nice
0,14,,filler_14,21.522866666666665,186,,4,1,,"weather,"
0,14,,filler_14,21.522866666666665,201,,5,1,,I
0,14,,filler_14,21.522866666666665,290,,6,1,,put
0,14,,filler_14,21.522866666666665,465,,7,1,,the
0,14,,filler_14,21.522866666666665,242,,8,1,,top
0,14,,filler_14,21.522866666666665,259,,9,1,,down
0,14,,filler_14,21.522866666666665,237,,10,1,,on
0,14,,filler_14,21.522866666666665,436,,11,1,,my
0,14,,filler_14,21.522866666666665,204,,12,1,,convertible.
0,14,,filler_14,21.522866666666665,381,,13,1,,I
0,14,,filler_14,21.522866666666665,327,,14,1,,was
0,14,,filler_14,21.522866666666665,308,,15,1,,afraid
0,14,,filler_14,21.522866666666665,341,,16,1,,of
0,14,,filler_14,21.522866666666665,231,,17,1,,sunburning
0,14,,filler_14,21.522866666666665,224,,18,1,,my
0,14,,filler_14,21.522866666666665,309,,19,1,,"head,"
0,14,,filler_14,21.522866666666665,415,,20,1,,so
0,14,,filler_14,21.522866666666665,260,,21,1,,I
0,14,,filler_14,21.522866666666665,331,,22,1,,wore
0,14,,filler_14,21.522866666666665,673,,23,1,,a
0,14,,filler_14,21.522866666666665,329,,24,1,,hat.
0,15,,filler_57,21.522866666666665,239,,0,1,,When
0,15,,filler_57,21.522866666666665,332,,1,1,,I
0,15,,filler_57,21.522866666666665,205,,2,1,,was
0,15,,filler_57,21.522866666666665,170,,3,1,,driving
0,15,,filler_57,21.522866666666665,339,,4,1,,on
0,15,,filler_57,21.522866666666665,361,,5,1,,the
0,15,,filler_57,21.522866666666665,284,,6,1,,"highway,"
0,15,,filler_57,21.522866666666665,304,,7,1,,a
0,15,,filler_57,21.522866666666665,265,,8,1,,car
0,15,,filler_57,21.522866666666665,213,,9,1,,nearly
0,15,,filler_57,21.522866666666665,219,,10,1,,crashed
0,15,,filler_57,21.522866666666665,428,,11,1,,into
0,15,,filler_57,21.522866666666665,236,,12,1,,me
0,15,,filler_57,21.522866666666665,204,,13,1,,because
0,15,,filler_57,21.522866666666665,370,,14,1,,it
0,15,,filler_57,21.522866666666665,223,,15,1,,was
0,15,,filler_57,21.522866666666665,246,,16,1,,going
0,15,,filler_57,21.522866666666665,273,,17,1,,too
0,15,,filler_57,21.522866666666665,225,,18,1,,fast.
0,15,,filler_57,21.522866666666665,210,,19,1,,Later
0,15,,filler_57,21.522866666666665,236,,20,1,,"on,"
0,15,,filler_57,21.522866666666665,215,,21,1,,I
0,15,,filler_57,21.522866666666665,202,,22,1,,noticed
0,15,,filler_57,21.522866666666665,198,,23,1,,the
0,15,,filler_57,21.522866666666665,213,,24,1,,same
0,15,,filler_57,21.522866666666665,208,,25,1,,car
0,15,,filler_57,21.522866666666665,193,,26,1,,on
0,15,,filler_57,21.522866666666665,355,,27,1,,the
0,15,,filler_57,21.522866666666665,205,,28,1,,side
0,15,,filler_57,21.522866666666665,223,,29,1,,of
0,15,,filler_57,21.522866666666665,210,,30,1,,the
0,15,,filler_57,21.522866666666665,219,,31,1,,road.
0,15,,filler_57,21.522866666666665,231,,32,1,,It
0,15,,filler_57,21.522866666666665,230,,33,1,,looked
0,15,,filler_57,21.522866666666665,215,,34,1,,to
0,15,,filler_57,21.522866666666665,220,,35,1,,me
0,15,,filler_57,21.522866666666665,191,,36,1,,like
0,15,,filler_57,21.522866666666665,215,,37,1,,a
0,15,,filler_57,21.522866666666665,244,,38,1,,police
0,15,,filler_57,21.522866666666665,424,,39,1,,officer
0,15,,filler_57,21.522866666666665,36,,40,1,,was
0,15,,filler_57,21.522866666666665,240,,41,1,,giving
0,15,,filler_57,21.522866666666665,249,,42,1,,the
0,15,,filler_57,21.522866666666665,254,,43,1,,driver
0,15,,filler_57,21.522866666666665,302,,44,1,,a
0,15,,filler_57,21.522866666666665,349,,45,1,,ticket.
0,16,,filler_21,21.522866666666665,403,,0,1,,Neil
0,16,,filler_21,21.522866666666665,191,,1,1,,Patrick
0,16,,filler_21,21.522866666666665,220,,2,1,,Harris
0,16,,filler_21,21.522866666666665,248,,3,1,,is
0,16,,filler_21,21.522866666666665,237,,4,1,,my
0,16,,filler_21,21.522866666666665,216,,5,1,,favorite
0,16,,filler_21,21.522866666666665,218,,6,1,,actor.
0,16,,filler_21,21.522866666666665,198,,7,1,,Harris
0,16,,filler_21,21.522866666666665,210,,8,1,,stars
0,16,,filler_21,21.522866666666665,580,,9,1,,in
0,16,,filler_21,21.522866666666665,217,,10,1,,my
0,16,,filler_21,21.522866666666665,248,,11,1,,favorite
0,16,,filler_21,21.522866666666665,224,,12,1,,TV
0,16,,filler_21,21.522866666666665,345,,13,1,,show.
0,16,,filler_21,21.522866666666665,315,,14,1,,I
0,16,,filler_21,21.522866666666665,317,,15,1,,wish
0,16,,filler_21,21.522866666666665,220,,16,1,,I
0,16,,filler_21,21.522866666666665,214,,17,1,,could
0,16,,filler_21,21.522866666666665,243,,18,1,,meet
0,16,,filler_21,21.522866666666665,239,,19,1,,him.
0,17,,filler_52,21.522866666666665,348,,0,1,,After
0,17,,filler_52,21.522866666666665,390,,1,1,,my
0,17,,filler_52,21.522866666666665,425,,2,1,,brother's
0,17,,filler_52,21.522866666666665,331,,3,1,,"wedding,"
0,17,,filler_52,21.522866666666665,353,,4,1,,I
0,17,,filler_52,21.522866666666665,288,,5,1,,helped
0,17,,filler_52,21.522866666666665,220,,6,1,,him
0,17,,filler_52,21.522866666666665,329,,7,1,,address
0,17,,filler_52,21.522866666666665,297,,8,1,,the
0,17,,filler_52,21.522866666666665,437,,9,1,,envelopes
0,17,,filler_52,21.522866666666665,436,,10,1,,to
0,17,,filler_52,21.522866666666665,603,,11,1,,his
0,17,,filler_52,21.522866666666665,619,,12,1,,thank-you
0,17,,filler_52,21.522866666666665,488,,13,1,,notes.
0,17,,filler_52,21.522866666666665,472,,14,1,,When
0,17,,filler_52,21.522866666666665,323,,15,1,,I
0,17,,filler_52,21.522866666666665,593,,16,1,,"finished,"
0,17,,filler_52,21.522866666666665,391,,17,1,,my
0,17,,filler_52,21.522866666666665,344,,18,1,,hand
0,17,,filler_52,21.522866666666665,359,,19,1,,was
0,17,,filler_52,21.522866666666665,272,,20,1,,sore
0,17,,filler_52,21.522866666666665,223,,21,1,,from
0,17,,filler_52,21.522866666666665,483,,22,1,,all
0,17,,filler_52,21.522866666666665,253,,23,1,,the
0,17,,filler_52,21.522866666666665,524,,24,1,,writing.
0,17,,filler_52,21.522866666666665,347,,25,1,,I
0,17,,filler_52,21.522866666666665,301,,26,1,,was
0,17,,filler_52,21.522866666666665,430,,27,1,,glad
0,17,,filler_52,21.522866666666665,396,,28,1,,I
0,17,,filler_52,21.522866666666665,313,,29,1,,didn't
0,17,,filler_52,21.522866666666665,262,,30,1,,have
0,17,,filler_52,21.522866666666665,205,,31,1,,to
0,17,,filler_52,21.522866666666665,259,,32,1,,write
0,17,,filler_52,21.522866666666665,244,,33,1,,the
0,17,,filler_52,21.522866666666665,289,,34,1,,"letters,"
0,17,,filler_52,21.522866666666665,302,,35,1,,as
0,17,,filler_52,21.522866666666665,286,,36,1,,well.
0,18,,filler_29,21.522866666666665,275,,0,1,,Over
0,18,,filler_29,21.522866666666665,286,,1,1,,the
0,18,,filler_29,21.522866666666665,214,,2,1,,weekend
0,18,,filler_29,21.522866666666665,187,,3,1,,I
0,18,,filler_29,21.522866666666665,194,,4,1,,saw
0,18,,filler_29,21.522866666666665,198,,5,1,,a
0,18,,filler_29,21.522866666666665,325,,6,1,,play.
0,18,,filler_29,21.522866666666665,179,,7,1,,The
0,18,,filler_29,21.522866666666665,189,,8,1,,student
0,18,,filler_29,21.522866666666665,200,,9,1,,theatre
0,18,,filler_29,21.522866666666665,201,,10,1,,group
0,18,,filler_29,21.522866666666665,465,,11,1,,put
0,18,,filler_29,21.522866666666665,190,,12,1,,it
0,18,,filler_29,21.522866666666665,195,,13,1,,on.
0,18,,filler_29,21.522866666666665,202,,14,1,,If
0,18,,filler_29,21.522866666666665,208,,15,1,,the
0,18,,filler_29,21.522866666666665,252,,16,1,,actors
0,18,,filler_29,21.522866666666665,230,,17,1,,could
0,18,,filler_29,21.522866666666665,215,,18,1,,sing
0,18,,filler_29,21.522866666666665,201,,19,1,,it
0,18,,filler_29,21.522866666666665,213,,20,1,,would
0,18,,filler_29,21.522866666666665,442,,21,1,,sound
0,18,,filler_29,21.522866666666665,43,,22,1,,nicer.
0,19,,filler_32,21.522866666666665,344,,0,1,,Last
0,19,,filler_32,21.522866666666665,225,,1,1,,summer
0,19,,filler_32,21.522866666666665,193,,2,1,,I
0,19,,filler_32,21.522866666666665,202,,3,1,,went
0,19,,filler_32,21.522866666666665,191,,4,1,,to
0,19,,filler_32,21.522866666666665,190,,5,1,,Chicago
0,19,,filler_32,21.522866666666665,199,,6,1,,on
0,19,,filler_32,21.522866666666665,188,,7,1,,vacation.
0,19,,filler_32,21.522866666666665,217,,8,1,,When
0,19,,filler_32,21.522866666666665,236,,9,1,,I
0,19,,filler_32,21.522866666666665,225,,10,1,,was
0,19,,filler_32,21.522866666666665,223,,11,1,,"there,"
0,19,,filler_32,21.522866666666665,212,,12,1,,I
0,19,,filler_32,21.522866666666665,204,,13,1,,visited
0,19,,filler_32,21.522866666666665,223,,14,1,,the
0,19,,filler_32,21.522866666666665,222,,15,1,,Art
0,19,,filler_32,21.522866666666665,216,,16,1,,Institute
0,19,,filler_32,21.522866666666665,215,,17,1,,and
0,19,,filler_32,21.522866666666665,215,,18,1,,saw
0,19,,filler_32,21.522866666666665,204,,19,1,,a
0,19,,filler_32,21.522866666666665,229,,20,1,,painting
0,19,,filler_32,21.522866666666665,219,,21,1,,by
0,19,,filler_32,21.522866666666665,451,,22,1,,Georges
0,19,,filler_32,21.522866666666665,238,,23,1,,Seurat.
0,19,,filler_32,21.522866666666665,216,,24,1,,It
0,19,,filler_32,21.522866666666665,228,,25,1,,was
0,19,,filler_32,21.522866666666665,231,,26,1,,much
0,19,,filler_32,21.522866666666665,229,,27,1,,bigger
0,19,,filler_32,21.522866666666665,262,,28,1,,than
0,19,,filler_32,21.522866666666665,234,,29,1,,I
0,19,,filler_32,21.522866666666665,218,,30,1,,thought
0,19,,filler_32,21.522866666666665,274,,31,1,,it
0,19,,filler_32,21.522866666666665,238,,32,1,,would
0,19,,filler_32,21.522866666666665,290,,33,1,,be.
0,20,,filler_20,21.522866666666665,395,,0,0,,I
0,20,,filler_20,21.522866666666665,470,,1,0,,am
0,20,,filler_20,21.522866666666665,455,,2,0,,a
0,20,,filler_20,21.522866666666665,319,,3,0,,big
0,20,,filler_20,21.522866666666665,233,,4,0,,Star
0,20,,filler_20,21.522866666666665,433,,5,0,,Wars
0,20,,filler_20,21.522866666666665,337,,6,0,,fan.
0,20,,filler_20,21.522866666666665,210,,7,0,,I
0,20,,filler_20,21.522866666666665,393,,8,0,,have
0,20,,filler_20,21.522866666666665,216,,9,0,,seen
0,20,,filler_20,21.522866666666665,321,,10,0,,every
0,20,,filler_20,21.522866666666665,373,,11,0,,movie
0,20,,filler_20,21.522866666666665,304,,12,0,,and
0,20,,filler_20,21.522866666666665,223,,13,0,,read
0,20,,filler_20,21.522866666666665,866,,14,0,,every
0,20,,filler_20,21.522866666666665,458,,15,0,,book.
0,20,,filler_20,21.522866666666665,435,,16,0,,I
0,20,,filler_20,21.522866666666665,540,,17,0,,can't
0,20,,filler_20,21.522866666666665,639,,18,0,,stand
0,20,,filler_20,21.522866666666665,318,,19,0,,it
0,20,,filler_20,21.522866666666665,300,,20,0,,when
0,20,,filler_20,21.522866666666665,269,,21,0,,they
0,20,,filler_20,21.522866666666665,284,,22,0,,make
0,20,,filler_20,21.522866666666665,218,,23,0,,TV
0,20,,filler_20,21.522866666666665,198,,24,0,,shows
0,20,,filler_20,21.522866666666665,214,,25,0,,out
0,20,,filler_20,21.522866666666665,203,,26,0,,of
0,20,,filler_20,21.522866666666665,405,,27,0,,movies.
0,21,,filler_37,21.522866666666665,249,,0,1,,I
0,21,,filler_37,21.522866666666665,201,,1,1,,enjoy
0,21,,filler_37,21.522866666666665,180,,2,1,,playing
0,21,,filler_37,21.522866666666665,184,,3,1,,board
0,21,,filler_37,21.522866666666665,212,,4,1,,games
0,21,,filler_37,21.522866666666665,202,,5,1,,with
0,21,,filler_37,21.522866666666665,196,,6,1,,my
0,21,,filler_37,21.522866666666665,234,,7,1,,uncle.
0,21,,filler_37,21.522866666666665,211,,8,1,,The
0,21,,filler_37,21.522866666666665,221,,9,1,,last
0,21,,filler_37,21.522866666666665,212,,10,1,,time
0,21,,filler_37,21.522866666666665,209,,11,1,,we
0,21,,filler_37,21.522866666666665,191,,12,1,,played
0,21,,filler_37,21.522866666666665,225,,13,1,,"together,"
0,21,,filler_37,21.522866666666665,196,,14,1,,I
0,21,,filler_37,21.522866666666665,197,,15,1,,thought
0,21,,filler_37,21.522866666666665,222,,16,1,,I
0,21,,filler_37,21.522866666666665,209,,17,1,,had
0,21,,filler_37,21.522866666666665,207,,18,1,,won.
0,21,,filler_37,21.522866666666665,202,,19,1,,When
0,21,,filler_37,21.522866666666665,225,,20,1,,we
0,21,,filler_37,21.522866666666665,193,,21,1,,tallied
0,21,,filler_37,21.522866666666665,200,,22,1,,up
0,21,,filler_37,21.522866666666665,225,,23,1,,the
0,21,,filler_37,21.522866666666665,217,,24,1,,scores
0,21,,filler_37,21.522866666666665,229,,25,1,,I
0,21,,filler_37,21.522866666666665,225,,26,1,,discovered
0,21,,filler_37,21.522866666666665,245,,27,1,,that
0,21,,filler_37,21.522866666666665,206,,28,1,,he
0,21,,filler_37,21.522866666666665,216,,29,1,,beat
0,21,,filler_37,21.522866666666665,187,,30,1,,me
0,21,,filler_37,21.522866666666665,196,,31,1,,by
0,21,,filler_37,21.522866666666665,197,,32,1,,one
0,21,,filler_37,21.522866666666665,239,,33,1,,point.
0,22,,filler_46,21.522866666666665,191,,0,1,,I
0,22,,filler_46,21.522866666666665,199,,1,1,,recently
0,22,,filler_46,21.522866666666665,211,,2,1,,redecorated
0,22,,filler_46,21.522866666666665,202,,3,1,,my
0,22,,filler_46,21.522866666666665,577,,4,1,,bedroom.
0,22,,filler_46,21.522866666666665,180,,5,1,,I
0,22,,filler_46,21.522866666666665,510,,6,1,,picked
0,22,,filler_46,21.522866666666665,384,,7,1,,out
0,22,,filler_46,21.522866666666665,359,,8,1,,blue
0,22,,filler_46,21.522866666666665,357,,9,1,,paint
0,22,,filler_46,21.522866666666665,378,,10,1,,for
0,22,,filler_46,21.522866666666665,400,,11,1,,my
0,22,,filler_46,21.522866666666665,446,,12,1,,walls.
0,22,,filler_46,21.522866666666665,685,,13,1,,When
0,22,,filler_46,21.522866666666665,598,,14,1,,the
0,22,,filler_46,21.522866666666665,494,,15,1,,paint
0,22,,filler_46,21.522866666666665,444,,16,1,,"arrived,"
0,22,,filler_46,21.522866666666665,359,,17,1,,I
0,22,,filler_46,21.522866666666665,281,,18,1,,discovered
0,22,,filler_46,21.522866666666665,245,,19,1,,that
0,22,,filler_46,21.522866666666665,453,,20,1,,it
0,22,,filler_46,21.522866666666665,342,,21,1,,was
0,22,,filler_46,21.522866666666665,267,,22,1,,a
0,22,,filler_46,21.522866666666665,276,,23,1,,darker
0,22,,filler_46,21.522866666666665,222,,24,1,,blue
0,22,,filler_46,21.522866666666665,229,,25,1,,than
0,22,,filler_46,21.522866666666665,428,,26,1,,the
0,22,,filler_46,21.522866666666665,224,,27,1,,color
0,22,,filler_46,21.522866666666665,200,,28,1,,I
0,22,,filler_46,21.522866666666665,425,,29,1,,wanted.
0,23,,filler_5,21.522866666666665,532,,0,1,,Each
0,23,,filler_5,21.522866666666665,564,,1,1,,week
0,23,,filler_5,21.522866666666665,253,,2,1,,I
0,23,,filler_5,21.522866666666665,429,,3,1,,write
0,23,,filler_5,21.522866666666665,187,,4,1,,at
0,23,,filler_5,21.522866666666665,230,,5,1,,least
0,23,,filler_5,21.522866666666665,204,,6,1,,one
0,23,,filler_5,21.522866666666665,181,,7,1,,response
0,23,,filler_5,21.522866666666665,219,,8,1,,paper.
0,23,,filler_5,21.522866666666665,453,,9,1,,This
0,23,,filler_5,21.522866666666665,319,,10,1,,week
0,23,,filler_5,21.522866666666665,253,,11,1,,I
0,23,,filler_5,21.522866666666665,264,,12,1,,wrote
0,23,,filler_5,21.522866666666665,1039,,13,1,,two.
0,23,,filler_5,21.522866666666665,731,,14,1,,One
0,23,,filler_5,21.522866666666665,119,,15,1,,was
0,23,,filler_5,21.522866666666665,472,,16,1,,for
0,23,,filler_5,21.522866666666665,549,,17,1,,psychology
0,23,,filler_5,21.522866666666665,284,,18,1,,and
0,23,,filler_5,21.522866666666665,516,,19,1,,another
0,23,,filler_5,21.522866666666665,410,,20,1,,was
0,23,,filler_5,21.522866666666665,276,,21,1,,for
0,23,,filler_5,21.522866666666665,493,,22,1,,classics.
0,24,,filler_38,21.522866666666665,408,,0,1,,In
0,24,,filler_38,21.522866666666665,189,,1,1,,the
0,24,,filler_38,21.522866666666665,203,,2,1,,"mornings,"
0,24,,filler_38,21.522866666666665,212,,3,1,,I
0,24,,filler_38,21.522866666666665,226,,4,1,,go
0,24,,filler_38,21.522866666666665,250,,5,1,,jogging
0,24,,filler_38,21.522866666666665,220,,6,1,,because
0,24,,filler_38,21.522866666666665,214,,7,1,,that
0,24,,filler_38,21.522866666666665,226,,8,1,,is
0,24,,filler_38,21.522866666666665,234,,9,1,,when
0,24,,filler_38,21.522866666666665,226,,10,1,,I
0,24,,filler_38,21.522866666666665,249,,11,1,,can
0,24,,filler_38,21.522866666666665,234,,12,1,,fit
0,24,,filler_38,21.522866666666665,248,,13,1,,it
0,24,,filler_38,21.522866666666665,248,,14,1,,into
0,24,,filler_38,21.522866666666665,264,,15,1,,my
0,24,,filler_38,21.522866666666665,252,,16,1,,schedule.
0,24,,filler_38,21.522866666666665,455,,17,1,,I
0,24,,filler_38,21.522866666666665,218,,18,1,,like
0,24,,filler_38,21.522866666666665,206,,19,1,,exercising
0,24,,filler_38,21.522866666666665,271,,20,1,,then
0,24,,filler_38,21.522866666666665,375,,21,1,,because
0,24,,filler_38,21.522866666666665,218,,22,1,,the
0,24,,filler_38,21.522866666666665,216,,23,1,,weather
0,24,,filler_38,21.522866666666665,216,,24,1,,is
0,24,,filler_38,21.522866666666665,236,,25,1,,cooler
0,24,,filler_38,21.522866666666665,228,,26,1,,than
0,24,,filler_38,21.522866666666665,412,,27,1,,it
0,24,,filler_38,21.522866666666665,50,,28,1,,is
0,24,,filler_38,21.522866666666665,220,,29,1,,during
0,24,,filler_38,21.522866666666665,205,,30,1,,the
0,24,,filler_38,21.522866666666665,215,,31,1,,afternoon.
0,24,,filler_38,21.522866666666665,208,,32,1,,"Also,"
0,24,,filler_38,21.522866666666665,470,,33,1,,the
0,24,,filler_38,21.522866666666665,308,,34,1,,paths
0,24,,filler_38,21.522866666666665,337,,35,1,,are
0,24,,filler_38,21.522866666666665,300,,36,1,,not
0,24,,filler_38,21.522866666666665,308,,37,1,,very
0,24,,filler_38,21.522866666666665,361,,38,1,,crowded.
0,25,,filler_39,21.522866666666665,464,,0,1,,I
0,25,,filler_39,21.522866666666665,294,,1,1,,have
0,25,,filler_39,21.522866666666665,225,,2,1,,often
0,25,,filler_39,21.522866666666665,257,,3,1,,heard
0,25,,filler_39,21.522866666666665,225,,4,1,,that
0,25,,filler_39,21.522866666666665,191,,5,1,,carrots
0,25,,filler_39,21.522866666666665,226,,6,1,,help
0,25,,filler_39,21.522866666666665,271,,7,1,,you
0,25,,filler_39,21.522866666666665,241,,8,1,,see
0,25,,filler_39,21.522866666666665,206,,9,1,,in
0,25,,filler_39,21.522866666666665,205,,10,1,,the
0,25,,filler_39,21.522866666666665,194,,11,1,,dark.
0,25,,filler_39,21.522866666666665,226,,12,1,,I
0,25,,filler_39,21.522866666666665,200,,13,1,,once
0,25,,filler_39,21.522866666666665,218,,14,1,,ate
0,25,,filler_39,21.522866666666665,221,,15,1,,an
0,25,,filler_39,21.522866666666665,207,,16,1,,entire
0,25,,filler_39,21.522866666666665,190,,17,1,,bag
0,25,,filler_39,21.522866666666665,199,,18,1,,of
0,25,,filler_39,21.522866666666665,200,,19,1,,carrots
0,25,,filler_39,21.522866666666665,199,,20,1,,and
0,25,,filler_39,21.522866666666665,222,,21,1,,then
0,25,,filler_39,21.522866666666665,207,,22,1,,turned
0,25,,filler_39,21.522866666666665,204,,23,1,,the
0,25,,filler_39,21.522866666666665,197,,24,1,,light
0,25,,filler_39,21.522866666666665,265,,25,1,,off.
0,25,,filler_39,21.522866666666665,186,,26,1,,The
0,25,,filler_39,21.522866666666665,548,,27,1,,carrots
0,25,,filler_39,21.522866666666665,24,,28,1,,must
0,25,,filler_39,21.522866666666665,90,,29,1,,have
0,25,,filler_39,21.522866666666665,197,,30,1,,"failed,"
0,25,,filler_39,21.522866666666665,204,,31,1,,because
0,25,,filler_39,21.522866666666665,209,,32,1,,I
0,25,,filler_39,21.522866666666665,224,,33,1,,couldn't
0,25,,filler_39,21.522866666666665,219,,34,1,,see
0,25,,filler_39,21.522866666666665,204,,35,1,,anything.
0,26,,hotel_cs,21.522866666666665,236,,0,1,,When
0,26,,hotel_cs,21.522866666666665,212,,1,1,,they
0,26,,hotel_cs,21.522866666666665,220,,2,1,,"returned,"
0,26,,hotel_cs,21.522866666666665,232,,3,1,,I
0,26,,hotel_cs,21.522866666666665,224,,4,1,,reviewed
0,26,,hotel_cs,21.522866666666665,228,,5,1,,each
0,26,,hotel_cs,21.522866666666665,210,,6,1,,of
0,26,,hotel_cs,21.522866666666665,205,,7,1,,the
0,26,,hotel_cs,21.522866666666665,210,,8,1,,receipts
0,26,,hotel_cs,21.522866666666665,202,,9,1,,for
0,26,,hotel_cs,21.522866666666665,249,,10,1,,my
0,26,,hotel_cs,21.522866666666665,211,,11,1,,family's
0,26,,hotel_cs,21.522866666666665,225,,12,1,,trip
0,26,,hotel_cs,21.522866666666665,171,,13,1,,to
0,26,,hotel_cs,21.522866666666665,223,,14,1,,Europe.
0,26,,hotel_cs,21.522866666666665,220,,15,1,,Some
0,26,,hotel_cs,21.522866666666665,213,,16,1,,of
0,26,,hotel_cs,21.522866666666665,198,,17,1,,their
0,26,,hotel_cs,21.522866666666665,230,,18,1,,hotels
0,26,,hotel_cs,21.522866666666665,201,,19,1,,were
0,26,,hotel_cs,21.522866666666665,240,,20,1,,expensive.
0,26,,hotel_cs,21.522866666666665,229,,21,1,,In
0,26,,hotel_cs,21.522866666666665,530,,22,1,,"fact,"
0,26,,hotel_cs,21.522866666666665,220,,23,1,,they
0,26,,hotel_cs,21.522866666666665,258,,24,1,,all
0,26,,hotel_cs,21.522866666666665,278,,25,1,,were
0,26,,hotel_cs,21.522866666666665,227,,26,1,,because
0,26,,hotel_cs,21.522866666666665,331,,27,1,,my
0,26,,hotel_cs,21.522866666666665,322,,28,1,,family
0,26,,hotel_cs,21.522866666666665,279,,29,1,,loves
0,26,,hotel_cs,21.522866666666665,251,,30,1,,luxurious
0,26,,hotel_cs,21.522866666666665,292,,31,1,,holidays.
0,27,,vet_cs,21.522866666666665,208,,0,1,,While
0,27,,vet_cs,21.522866666666665,204,,1,1,,working
0,27,,vet_cs,21.522866666666665,196,,2,1,,in
0,27,,vet_cs,21.522866666666665,197,,3,1,,the
0,27,,vet_cs,21.522866666666665,453,,4,1,,veterinary
0,27,,vet_cs,21.522866666666665,232,,5,1,,"clinic,"
0,27,,vet_cs,21.522866666666665,190,,6,1,,I
0,27,,vet_cs,21.522866666666665,212,,7,1,,closely
0,27,,vet_cs,21.522866666666665,225,,8,1,,examined
0,27,,vet_cs,21.522866666666665,228,,9,1,,the
0,27,,vet_cs,21.522866666666665,223,,10,1,,mouth
0,27,,vet_cs,21.522866666666665,210,,11,1,,of
0,27,,vet_cs,21.522866666666665,240,,12,1,,large
0,27,,vet_cs,21.522866666666665,211,,13,1,,bulldog.
0,27,,vet_cs,21.522866666666665,206,,14,1,,Some
0,27,,vet_cs,21.522866666666665,221,,15,1,,of
0,27,,vet_cs,21.522866666666665,239,,16,1,,the
0,27,,vet_cs,21.522866666666665,227,,17,1,,dog's
0,27,,vet_cs,21.522866666666665,232,,18,1,,teeth
0,27,,vet_cs,21.522866666666665,238,,19,1,,were
0,27,,vet_cs,21.522866666666665,242,,20,1,,missing.
0,27,,vet_cs,21.522866666666665,216,,21,1,,In
0,27,,vet_cs,21.522866666666665,246,,22,1,,"fact,"
0,27,,vet_cs,21.522866666666665,223,,23,1,,they
0,27,,vet_cs,21.522866666666665,628,,24,1,,all
0,27,,vet_cs,21.522866666666665,341,,25,1,,were
0,27,,vet_cs,21.522866666666665,281,,26,1,,because
0,27,,vet_cs,21.522866666666665,528,,27,1,,its
0,27,,vet_cs,21.522866666666665,396,,28,1,,owners
0,27,,vet_cs,21.522866666666665,635,,29,1,,completely
0,27,,vet_cs,21.522866666666665,367,,30,1,,neglected
0,27,,vet_cs,21.522866666666665,362,,31,1,,its
0,27,,vet_cs,21.522866666666665,370,,32,1,,oral
0,27,,vet_cs,21.522866666666665,361,,33,1,,hygiene.
0,28,,filler_40,21.522866666666665,177,,0,1,,My
0,28,,filler_40,21.522866666666665,429,,1,1,,friend
0,28,,filler_40,21.522866666666665,276,,2,1,,told
0,28,,filler_40,21.522866666666665,340,,3,1,,me
0,28,,filler_40,21.522866666666665,316,,4,1,,that
0,28,,filler_40,21.522866666666665,341,,5,1,,my
0,28,,filler_40,21.522866666666665,355,,6,1,,favorite
0,28,,filler_40,21.522866666666665,353,,7,1,,band
0,28,,filler_40,21.522866666666665,344,,8,1,,was
0,28,,filler_40,21.522866666666665,355,,9,1,,giving
0,28,,filler_40,21.522866666666665,316,,10,1,,a
0,28,,filler_40,21.522866666666665,389,,11,1,,concert
0,28,,filler_40,21.522866666666665,371,,12,1,,in
0,28,,filler_40,21.522866666666665,286,,13,1,,my
0,28,,filler_40,21.522866666666665,305,,14,1,,hometown.
0,28,,filler_40,21.522866666666665,299,,15,1,,I
0,28,,filler_40,21.522866666666665,250,,16,1,,checked
0,28,,filler_40,21.522866666666665,324,,17,1,,their
0,28,,filler_40,21.522866666666665,335,,18,1,,website
0,28,,filler_40,21.522866666666665,350,,19,1,,to
0,28,,filler_40,21.522866666666665,296,,20,1,,see
0,28,,filler_40,21.522866666666665,256,,21,1,,if
0,28,,filler_40,21.522866666666665,307,,22,1,,tickets
0,28,,filler_40,21.522866666666665,257,,23,1,,were
0,28,,filler_40,21.522866666666665,289,,24,1,,still
0,28,,filler_40,21.522866666666665,446,,25,1,,available.
0,28,,filler_40,21.522866666666665,310,,26,1,,I
0,28,,filler_40,21.522866666666665,323,,27,1,,even
0,28,,filler_40,21.522866666666665,286,,28,1,,managed
0,28,,filler_40,21.522866666666665,326,,29,1,,to
0,28,,filler_40,21.522866666666665,383,,30,1,,get
0,28,,filler_40,21.522866666666665,288,,31,1,,a
0,28,,filler_40,21.522866666666665,311,,32,1,,discount.
0,29,,filler_45,21.522866666666665,1076,,0,1,,When
0,29,,filler_45,21.522866666666665,384,,1,1,,I
0,29,,filler_45,21.522866666666665,398,,2,1,,was
0,29,,filler_45,21.522866666666665,567,,3,1,,babysitting
0,29,,filler_45,21.522866666666665,556,,4,1,,my
0,29,,filler_45,21.522866666666665,15,,5,1,,"cousin,"
0,29,,filler_45,21.522866666666665,768,,6,1,,we
0,29,,filler_45,21.522866666666665,261,,7,1,,did
0,29,,filler_45,21.522866666666665,486,,8,1,,an
0,29,,filler_45,21.522866666666665,230,,9,1,,art
0,29,,filler_45,21.522866666666665,237,,10,1,,project.
0,29,,filler_45,21.522866666666665,189,,11,1,,We
0,29,,filler_45,21.522866666666665,201,,12,1,,spread
0,29,,filler_45,21.522866666666665,207,,13,1,,newspaper
0,29,,filler_45,21.522866666666665,208,,14,1,,on
0,29,,filler_45,21.522866666666665,192,,15,1,,the
0,29,,filler_45,21.522866666666665,191,,16,1,,floor
0,29,,filler_45,21.522866666666665,191,,17,1,,so
0,29,,filler_45,21.522866666666665,225,,18,1,,it
0,29,,filler_45,21.522866666666665,230,,19,1,,wouldn't
0,29,,filler_45,21.522866666666665,201,,20,1,,get
0,29,,filler_45,21.522866666666665,244,,21,1,,paint
0,29,,filler_45,21.522866666666665,208,,22,1,,on
0,29,,filler_45,21.522866666666665,199,,23,1,,it.
0,29,,filler_45,21.522866666666665,192,,24,1,,We
0,29,,filler_45,21.522866666666665,194,,25,1,,still
0,29,,filler_45,21.522866666666665,205,,26,1,,got
0,29,,filler_45,21.522866666666665,219,,27,1,,paint
0,29,,filler_45,21.522866666666665,214,,28,1,,on
0,29,,filler_45,21.522866666666665,228,,29,1,,our
0,29,,filler_45,21.522866666666665,190,,30,1,,"clothes,"
0,29,,filler_45,21.522866666666665,212,,31,1,,though.
0,30,,filler_6,21.522866666666665,40,,0,1,,When
0,30,,filler_6,21.522866666666665,439,,1,1,,I
0,30,,filler_6,21.522866666666665,226,,2,1,,arrived
0,30,,filler_6,21.522866666666665,223,,3,1,,in
0,30,,filler_6,21.522866666666665,199,,4,1,,the
0,30,,filler_6,21.522866666666665,190,,5,1,,parking
0,30,,filler_6,21.522866666666665,227,,6,1,,lot
0,30,,filler_6,21.522866666666665,212,,7,1,,today
0,30,,filler_6,21.522866666666665,209,,8,1,,I
0,30,,filler_6,21.522866666666665,198,,9,1,,saw
0,30,,filler_6,21.522866666666665,260,,10,1,,an
0,30,,filler_6,21.522866666666665,258,,11,1,,expensive
0,30,,filler_6,21.522866666666665,212,,12,1,,red
0,30,,filler_6,21.522866666666665,195,,13,1,,Ferrari.
0,30,,filler_6,21.522866666666665,191,,14,1,,When
0,30,,filler_6,21.522866666666665,201,,15,1,,I
0,30,,filler_6,21.522866666666665,225,,16,1,,left
0,30,,filler_6,21.522866666666665,207,,17,1,,for
0,30,,filler_6,21.522866666666665,198,,18,1,,lunch
0,30,,filler_6,21.522866666666665,190,,19,1,,it
0,30,,filler_6,21.522866666666665,230,,20,1,,was
0,30,,filler_6,21.522866666666665,240,,21,1,,gone.
0,31,,filler_60,21.522866666666665,252,,0,1,,I
0,31,,filler_60,21.522866666666665,189,,1,1,,usually
0,31,,filler_60,21.522866666666665,180,,2,1,,let
0,31,,filler_60,21.522866666666665,190,,3,1,,my
0,31,,filler_60,21.522866666666665,186,,4,1,,cat
0,31,,filler_60,21.522866666666665,200,,5,1,,go
0,31,,filler_60,21.522866666666665,214,,6,1,,outside
0,31,,filler_60,21.522866666666665,215,,7,1,,for
0,31,,filler_60,21.522866666666665,191,,8,1,,a
0,31,,filler_60,21.522866666666665,209,,9,1,,couple
0,31,,filler_60,21.522866666666665,215,,10,1,,hours
0,31,,filler_60,21.522866666666665,200,,11,1,,every
0,31,,filler_60,21.522866666666665,234,,12,1,,night.
0,31,,filler_60,21.522866666666665,206,,13,1,,Last
0,31,,filler_60,21.522866666666665,209,,14,1,,"night,"
0,31,,filler_60,21.522866666666665,232,,15,1,,I
0,31,,filler_60,21.522866666666665,220,,16,1,,forgot
0,31,,filler_60,21.522866666666665,238,,17,1,,to
0,31,,filler_60,21.522866666666665,198,,18,1,,let
0,31,,filler_60,21.522866666666665,233,,19,1,,him
0,31,,filler_60,21.522866666666665,231,,20,1,,back
0,31,,filler_60,21.522866666666665,207,,21,1,,in
0,31,,filler_60,21.522866666666665,198,,22,1,,until
0,31,,filler_60,21.522866666666665,218,,23,1,,the
0,31,,filler_60,21.522866666666665,220,,24,1,,next
0,31,,filler_60,21.522866666666665,198,,25,1,,morning.
0,31,,filler_60,21.522866666666665,203,,26,1,,The
0,31,,filler_60,21.522866666666665,199,,27,1,,minute
0,31,,filler_60,21.522866666666665,232,,28,1,,I
0,31,,filler_60,21.522866666666665,291,,29,1,,opened
0,31,,filler_60,21.522866666666665,197,,30,1,,the
0,31,,filler_60,21.522866666666665,221,,31,1,,"door,"
0,31,,filler_60,21.522866666666665,233,,32,1,,he
0,31,,filler_60,21.522866666666665,227,,33,1,,ran
0,31,,filler_60,21.522866666666665,203,,34,1,,inside
0,31,,filler_60,21.522866666666665,221,,35,1,,to
0,31,,filler_60,21.522866666666665,222,,36,1,,his
0,31,,filler_60,21.522866666666665,218,,37,1,,food
0,31,,filler_60,21.522866666666665,201,,38,1,,bowl.
0,32,,fraud_aw,21.522866666666665,192,,0,1,,As
0,32,,fraud_aw,21.522866666666665,216,,1,1,,part
0,32,,fraud_aw,21.522866666666665,196,,2,1,,of
0,32,,fraud_aw,21.522866666666665,218,,3,1,,my
0,32,,fraud_aw,21.522866666666665,190,,4,1,,"job,"
0,32,,fraud_aw,21.522866666666665,214,,5,1,,I
0,32,,fraud_aw,21.522866666666665,199,,6,1,,helped
0,32,,fraud_aw,21.522866666666665,211,,7,1,,unload
0,32,,fraud_aw,21.522866666666665,229,,8,1,,the
0,32,,fraud_aw,21.522866666666665,206,,9,1,,new
0,32,,fraud_aw,21.522866666666665,217,,10,1,,shipment
0,32,,fraud_aw,21.522866666666665,212,,11,1,,of
0,32,,fraud_aw,21.522866666666665,207,,12,1,,jewelry.
0,32,,fraud_aw,21.522866666666665,240,,13,1,,Some
0,32,,fraud_aw,21.522866666666665,246,,14,1,,of
0,32,,fraud_aw,21.522866666666665,219,,15,1,,the
0,32,,fraud_aw,21.522866666666665,216,,16,1,,gold
0,32,,fraud_aw,21.522866666666665,203,,17,1,,watches
0,32,,fraud_aw,21.522866666666665,718,,18,1,,were
0,32,,fraud_aw,21.522866666666665,229,,19,1,,fakes.
0,32,,fraud_aw,21.522866666666665,221,,20,1,,The
0,32,,fraud_aw,21.522866666666665,525,,21,1,,rest
0,32,,fraud_aw,21.522866666666665,192,,22,1,,were
0,32,,fraud_aw,21.522866666666665,230,,23,1,,"real,"
0,32,,fraud_aw,21.522866666666665,223,,24,1,,but
0,32,,fraud_aw,21.522866666666665,260,,25,1,,the
0,32,,fraud_aw,21.522866666666665,272,,26,1,,company
0,32,,fraud_aw,21.522866666666665,234,,27,1,,is
0,32,,fraud_aw,21.522866666666665,213,,28,1,,still
0,32,,fraud_aw,21.522866666666665,219,,29,1,,planning
0,32,,fraud_aw,21.522866666666665,214,,30,1,,to
0,32,,fraud_aw,21.522866666666665,245,,31,1,,sue.
0,33,,filler_33,21.522866666666665,190,,0,1,,My
0,33,,filler_33,21.522866666666665,687,,1,1,,favorite
0,33,,filler_33,21.522866666666665,218,,2,1,,fruit
0,33,,filler_33,21.522866666666665,486,,3,1,,used
0,33,,filler_33,21.522866666666665,214,,4,1,,to
0,33,,filler_33,21.522866666666665,232,,5,1,,be
0,33,,filler_33,21.522866666666665,257,,6,1,,raspberries.
0,33,,filler_33,21.522866666666665,456,,7,1,,When
0,33,,filler_33,21.522866666666665,263,,8,1,,I
0,33,,filler_33,21.522866666666665,200,,9,1,,was
0,33,,filler_33,21.522866666666665,220,,10,1,,"younger,"
0,33,,filler_33,21.522866666666665,4690,,11,1,,I
0,33,,filler_33,21.522866666666665,440,,12,1,,saw
0,33,,filler_33,21.522866666666665,226,,13,1,,a
0,33,,filler_33,21.522866666666665,197,,14,1,,bug
0,33,,filler_33,21.522866666666665,247,,15,1,,in
0,33,,filler_33,21.522866666666665,385,,16,1,,one
0,33,,filler_33,21.522866666666665,257,,17,1,,of
0,33,,filler_33,21.522866666666665,253,,18,1,,my
0,33,,filler_33,21.522866666666665,206,,19,1,,"raspberries,"
0,33,,filler_33,21.522866666666665,406,,20,1,,and
0,33,,filler_33,21.522866666666665,234,,21,1,,I
0,33,,filler_33,21.522866666666665,380,,22,1,,haven't
0,33,,filler_33,21.522866666666665,199,,23,1,,eaten
0,33,,filler_33,21.522866666666665,306,,24,1,,one
0,33,,filler_33,21.522866666666665,284,,25,1,,since.
0,34,,filler_27,21.522866666666665,241,,0,1,,I
0,34,,filler_27,21.522866666666665,215,,1,1,,use
0,34,,filler_27,21.522866666666665,197,,2,1,,Post-It
0,34,,filler_27,21.522866666666665,247,,3,1,,Notes
0,34,,filler_27,21.522866666666665,293,,4,1,,to
0,34,,filler_27,21.522866666666665,241,,5,1,,keep
0,34,,filler_27,21.522866666666665,196,,6,1,,track
0,34,,filler_27,21.522866666666665,223,,7,1,,of
0,34,,filler_27,21.522866666666665,240,,8,1,,my
0,34,,filler_27,21.522866666666665,251,,9,1,,homework.
0,34,,filler_27,21.522866666666665,216,,10,1,,Sometimes
0,34,,filler_27,21.522866666666665,234,,11,1,,I
0,34,,filler_27,21.522866666666665,248,,12,1,,lose
0,34,,filler_27,21.522866666666665,207,,13,1,,"them,"
0,34,,filler_27,21.522866666666665,227,,14,1,,but
0,34,,filler_27,21.522866666666665,320,,15,1,,the
0,34,,filler_27,21.522866666666665,227,,16,1,,adhesive
0,34,,filler_27,21.522866666666665,253,,17,1,,helps
0,34,,filler_27,21.522866666666665,230,,18,1,,them
0,34,,filler_27,21.522866666666665,239,,19,1,,stick
0,34,,filler_27,21.522866666666665,238,,20,1,,to
0,34,,filler_27,21.522866666666665,220,,21,1,,my
0,34,,filler_27,21.522866666666665,212,,22,1,,notes.
0,35,,filler_16,21.522866666666665,253,,0,0,,I
0,35,,filler_16,21.522866666666665,151,,1,0,,enjoy
0,35,,filler_16,21.522866666666665,185,,2,0,,driving
0,35,,filler_16,21.522866666666665,411,,3,0,,my
0,35,,filler_16,21.522866666666665,1,,4,0,,car
0,35,,filler_16,21.522866666666665,195,,5,0,,when
0,35,,filler_16,21.522866666666665,195,,6,0,,I
0,35,,filler_16,21.522866666666665,226,,7,0,,am
0,35,,filler_16,21.522866666666665,214,,8,0,,home
0,35,,filler_16,21.522866666666665,226,,9,0,,from
0,35,,filler_16,21.522866666666665,196,,10,0,,school.
0,35,,filler_16,21.522866666666665,232,,11,0,,Motorcycles
0,35,,filler_16,21.522866666666665,198,,12,0,,use
0,35,,filler_16,21.522866666666665,205,,13,0,,less
0,35,,filler_16,21.522866666666665,218,,14,0,,"fuel,"
0,35,,filler_16,21.522866666666665,201,,15,0,,but
0,35,,filler_16,21.522866666666665,217,,16,0,,they
0,35,,filler_16,21.522866666666665,227,,17,0,,are
0,35,,filler_16,21.522866666666665,246,,18,0,,more
0,35,,filler_16,21.522866666666665,198,,19,0,,dangerous.
0,36,,nitrogen_as,21.522866666666665,212,,0,1,,To
0,36,,nitrogen_as,21.522866666666665,198,,1,1,,keep
0,36,,nitrogen_as,21.522866666666665,192,,2,1,,the
0,36,,nitrogen_as,21.522866666666665,191,,3,1,,laboratory
0,36,,nitrogen_as,21.522866666666665,182,,4,1,,well
0,36,,nitrogen_as,21.522866666666665,226,,5,1,,"stocked,"
0,36,,nitrogen_as,21.522866666666665,211,,6,1,,I
0,36,,nitrogen_as,21.522866666666665,209,,7,1,,write
0,36,,nitrogen_as,21.522866666666665,203,,8,1,,down
0,36,,nitrogen_as,21.522866666666665,217,,9,1,,exactly
0,36,,nitrogen_as,21.522866666666665,214,,10,1,,how
0,36,,nitrogen_as,21.522866666666665,229,,11,1,,much
0,36,,nitrogen_as,21.522866666666665,207,,12,1,,of
0,36,,nitrogen_as,21.522866666666665,258,,13,1,,the
0,36,,nitrogen_as,21.522866666666665,215,,14,1,,chemicals
0,36,,nitrogen_as,21.522866666666665,212,,15,1,,are
0,36,,nitrogen_as,21.522866666666665,215,,16,1,,used
0,36,,nitrogen_as,21.522866666666665,213,,17,1,,every
0,36,,nitrogen_as,21.522866666666665,229,,18,1,,night.
0,36,,nitrogen_as,21.522866666666665,244,,19,1,,"Today,"
0,36,,nitrogen_as,21.522866666666665,201,,20,1,,some
0,36,,nitrogen_as,21.522866666666665,207,,21,1,,of
0,36,,nitrogen_as,21.522866666666665,199,,22,1,,the
0,36,,nitrogen_as,21.522866666666665,192,,23,1,,liquid
0,36,,nitrogen_as,21.522866666666665,188,,24,1,,nitrogen
0,36,,nitrogen_as,21.522866666666665,211,,25,1,,containers
0,36,,nitrogen_as,21.522866666666665,186,,26,1,,needed
0,36,,nitrogen_as,21.522866666666665,203,,27,1,,to
0,36,,nitrogen_as,21.522866666666665,204,,28,1,,be
0,36,,nitrogen_as,21.522866666666665,210,,29,1,,refilled.
0,36,,nitrogen_as,21.522866666666665,223,,30,1,,The
0,36,,nitrogen_as,21.522866666666665,206,,31,1,,others
0,36,,nitrogen_as,21.522866666666665,209,,32,1,,were
0,36,,nitrogen_as,21.522866666666665,210,,33,1,,normal
0,36,,nitrogen_as,21.522866666666665,197,,34,1,,but
0,36,,nitrogen_as,21.522866666666665,228,,35,1,,I
0,36,,nitrogen_as,21.522866666666665,199,,36,1,,decided
0,36,,nitrogen_as,21.522866666666665,220,,37,1,,to
0,36,,nitrogen_as,21.522866666666665,186,,38,1,,order
0,36,,nitrogen_as,21.522866666666665,189,,39,1,,more
0,36,,nitrogen_as,21.522866666666665,186,,40,1,,anyway.
0,37,,filler_9,21.522866666666665,450,,0,1,,Yesterday
0,37,,filler_9,21.522866666666665,169,,1,1,,I
0,37,,filler_9,21.522866666666665,220,,2,1,,went
0,37,,filler_9,21.522866666666665,198,,3,1,,to
0,37,,filler_9,21.522866666666665,204,,4,1,,a
0,37,,filler_9,21.522866666666665,193,,5,1,,Led
0,37,,filler_9,21.522866666666665,199,,6,1,,Zeppelin
0,37,,filler_9,21.522866666666665,192,,7,1,,concert.
0,37,,filler_9,21.522866666666665,202,,8,1,,I
0,37,,filler_9,21.522866666666665,217,,9,1,,only
0,37,,filler_9,21.522866666666665,202,,10,1,,go
0,37,,filler_9,21.522866666666665,203,,11,1,,to
0,37,,filler_9,21.522866666666665,234,,12,1,,see
0,37,,filler_9,21.522866666666665,216,,13,1,,bands
0,37,,filler_9,21.522866666666665,201,,14,1,,that
0,37,,filler_9,21.522866666666665,235,,15,1,,I
0,37,,filler_9,21.522866666666665,191,,16,1,,really
0,37,,filler_9,21.522866666666665,219,,17,1,,like.
0,37,,filler_9,21.522866666666665,198,,18,1,,
0,37,,filler_9,21.522866666666665,221,,19,1,,They
0,37,,filler_9,21.522866666666665,196,,20,1,,played
0,37,,filler_9,21.522866666666665,208,,21,1,,for
0,37,,filler_9,21.522866666666665,203,,22,1,,about
0,37,,filler_9,21.522866666666665,189,,23,1,,an
0,37,,filler_9,21.522866666666665,510,,24,1,,hour.
0,38,,tourists_lw,21.522866666666665,201,,0,1,,Earlier
0,38,,tourists_lw,21.522866666666665,212,,1,1,,"today,"
0,38,,tourists_lw,21.522866666666665,204,,2,1,,I
0,38,,tourists_lw,21.522866666666665,203,,3,1,,passed
0,38,,tourists_lw,21.522866666666665,226,,4,1,,by
0,38,,tourists_lw,21.522866666666665,200,,5,1,,a
0,38,,tourists_lw,21.522866666666665,219,,6,1,,group
0,38,,tourists_lw,21.522866666666665,209,,7,1,,of
0,38,,tourists_lw,21.522866666666665,194,,8,1,,tourists
0,38,,tourists_lw,21.522866666666665,209,,9,1,,looking
0,38,,tourists_lw,21.522866666666665,208,,10,1,,at
0,38,,tourists_lw,21.522866666666665,232,,11,1,,sights
0,38,,tourists_lw,21.522866666666665,237,,12,1,,downtown.
0,38,,tourists_lw,21.522866666666665,245,,13,1,,Only
0,38,,tourists_lw,21.522866666666665,193,,14,1,,some
0,38,,tourists_lw,21.522866666666665,220,,15,1,,of
0,38,,tourists_lw,21.522866666666665,221,,16,1,,tourists
0,38,,tourists_lw,21.522866666666665,201,,17,1,,got
0,38,,tourists_lw,21.522866666666665,205,,18,1,,soaked
0,38,,tourists_lw,21.522866666666665,216,,19,1,,by
0,38,,tourists_lw,21.522866666666665,237,,20,1,,the
0,38,,tourists_lw,21.522866666666665,215,,21,1,,rain
0,38,,tourists_lw,21.522866666666665,224,,22,1,,storm.
0,38,,tourists_lw,21.522866666666665,228,,23,1,,The
0,38,,tourists_lw,21.522866666666665,249,,24,1,,rest
0,38,,tourists_lw,21.522866666666665,208,,25,1,,were
0,38,,tourists_lw,21.522866666666665,222,,26,1,,dry
0,38,,tourists_lw,21.522866666666665,218,,27,1,,because
0,38,,tourists_lw,21.522866666666665,231,,28,1,,they
0,38,,tourists_lw,21.522866666666665,228,,29,1,,had
0,38,,tourists_lw,21.522866666666665,251,,30,1,,remembered
0,38,,tourists_lw,21.522866666666665,225,,31,1,,their
0,38,,tourists_lw,21.522866666666665,220,,32,1,,umbrellas.
0,39,,filler_50,21.522866666666665,185,,0,1,,On
0,39,,filler_50,21.522866666666665,187,,1,1,,Saturday
0,39,,filler_50,21.522866666666665,207,,2,1,,my
0,39,,filler_50,21.522866666666665,437,,3,1,,friends
0,39,,filler_50,21.522866666666665,186,,4,1,,and
0,39,,filler_50,21.522866666666665,204,,5,1,,I
0,39,,filler_50,21.522866666666665,192,,6,1,,played
0,39,,filler_50,21.522866666666665,223,,7,1,,miniature
0,39,,filler_50,21.522866666666665,205,,8,1,,golf.
0,39,,filler_50,21.522866666666665,211,,9,1,,I
0,39,,filler_50,21.522866666666665,196,,10,1,,played
0,39,,filler_50,21.522866666666665,239,,11,1,,pretty
0,39,,filler_50,21.522866666666665,198,,12,1,,"well,"
0,39,,filler_50,21.522866666666665,225,,13,1,,but
0,39,,filler_50,21.522866666666665,237,,14,1,,my
0,39,,filler_50,21.522866666666665,196,,15,1,,scores
0,39,,filler_50,21.522866666666665,181,,16,1,,fluctuated
0,39,,filler_50,21.522866666666665,236,,17,1,,a
0,39,,filler_50,21.522866666666665,219,,18,1,,lot.
0,39,,filler_50,21.522866666666665,221,,19,1,,At
0,39,,filler_50,21.522866666666665,241,,20,1,,one
0,39,,filler_50,21.522866666666665,222,,21,1,,"hole,"
0,39,,filler_50,21.522866666666665,254,,22,1,,my
0,39,,filler_50,21.522866666666665,234,,23,1,,ball
0,39,,filler_50,21.522866666666665,205,,24,1,,got
0,39,,filler_50,21.522866666666665,292,,25,1,,stuck
0,39,,filler_50,21.522866666666665,248,,26,1,,on
0,39,,filler_50,21.522866666666665,213,,27,1,,a
0,39,,filler_50,21.522866666666665,207,,28,1,,"windmill,"
0,39,,filler_50,21.522866666666665,217,,29,1,,but
0,39,,filler_50,21.522866666666665,212,,30,1,,at
0,39,,filler_50,21.522866666666665,212,,31,1,,the
0,39,,filler_50,21.522866666666665,233,,32,1,,"next,"
0,39,,filler_50,21.522866666666665,209,,33,1,,I
0,39,,filler_50,21.522866666666665,205,,34,1,,got
0,39,,filler_50,21.522866666666665,202,,35,1,,a
0,39,,filler_50,21.522866666666665,195,,36,1,,hole
0,39,,filler_50,21.522866666666665,209,,37,1,,in
0,39,,filler_50,21.522866666666665,421,,38,1,,one.
0,40,,filler_43,21.522866666666665,189,,0,1,,I
0,40,,filler_43,21.522866666666665,213,,1,1,,built
0,40,,filler_43,21.522866666666665,230,,2,1,,a
0,40,,filler_43,21.522866666666665,205,,3,1,,new
0,40,,filler_43,21.522866666666665,197,,4,1,,bookshelf
0,40,,filler_43,21.522866666666665,203,,5,1,,for
0,40,,filler_43,21.522866666666665,197,,6,1,,my
0,40,,filler_43,21.522866666666665,191,,7,1,,bedroom.
0,40,,filler_43,21.522866666666665,212,,8,1,,It
0,40,,filler_43,21.522866666666665,197,,9,1,,was
0,40,,filler_43,21.522866666666665,215,,10,1,,very
0,40,,filler_43,21.522866666666665,192,,11,1,,difficult
0,40,,filler_43,21.522866666666665,204,,12,1,,to
0,40,,filler_43,21.522866666666665,204,,13,1,,"do,"
0,40,,filler_43,21.522866666666665,216,,14,1,,because
0,40,,filler_43,21.522866666666665,192,,15,1,,I
0,40,,filler_43,21.522866666666665,205,,16,1,,lost
0,40,,filler_43,21.522866666666665,225,,17,1,,the
0,40,,filler_43,21.522866666666665,193,,18,1,,instructions
0,40,,filler_43,21.522866666666665,189,,19,1,,for
0,40,,filler_43,21.522866666666665,197,,20,1,,putting
0,40,,filler_43,21.522866666666665,185,,21,1,,it
0,40,,filler_43,21.522866666666665,228,,22,1,,together.
0,40,,filler_43,21.522866666666665,204,,23,1,,The
0,40,,filler_43,21.522866666666665,202,,24,1,,next
0,40,,filler_43,21.522866666666665,208,,25,1,,"day,"
0,40,,filler_43,21.522866666666665,191,,26,1,,it
0,40,,filler_43,21.522866666666665,222,,27,1,,fell
0,40,,filler_43,21.522866666666665,209,,28,1,,apart
0,40,,filler_43,21.522866666666665,195,,29,1,,again.
0,41,,filler_23,21.522866666666665,174,,0,0,,There
0,41,,filler_23,21.522866666666665,208,,1,0,,was
0,41,,filler_23,21.522866666666665,176,,2,0,,a
0,41,,filler_23,21.522866666666665,202,,3,0,,thunderstorm
0,41,,filler_23,21.522866666666665,205,,4,0,,today.
0,41,,filler_23,21.522866666666665,215,,5,0,,I
0,41,,filler_23,21.522866666666665,211,,6,0,,think
0,41,,filler_23,21.522866666666665,212,,7,0,,that
0,41,,filler_23,21.522866666666665,204,,8,0,,thunderstorms
0,41,,filler_23,21.522866666666665,203,,9,0,,are
0,41,,filler_23,21.522866666666665,212,,10,0,,romantic.
0,41,,filler_23,21.522866666666665,205,,11,0,,My
0,41,,filler_23,21.522866666666665,211,,12,0,,professor
0,41,,filler_23,21.522866666666665,193,,13,0,,became
0,41,,filler_23,21.522866666666665,235,,14,0,,annoyed
0,41,,filler_23,21.522866666666665,195,,15,0,,because
0,41,,filler_23,21.522866666666665,211,,16,0,,he
0,41,,filler_23,21.522866666666665,215,,17,0,,could
0,41,,filler_23,21.522866666666665,201,,18,0,,not
0,41,,filler_23,21.522866666666665,242,,19,0,,speak
0,41,,filler_23,21.522866666666665,210,,20,0,,over
0,41,,filler_23,21.522866666666665,192,,21,0,,the
0,41,,filler_23,21.522866666666665,215,,22,0,,thunder.
0,42,,hurricane_aw,21.522866666666665,200,,0,1,,Before
0,42,,hurricane_aw,21.522866666666665,192,,1,1,,the
0,42,,hurricane_aw,21.522866666666665,225,,2,1,,hurricane
0,42,,hurricane_aw,21.522866666666665,231,,3,1,,"landed,"
0,42,,hurricane_aw,21.522866666666665,203,,4,1,,I
0,42,,hurricane_aw,21.522866666666665,284,,5,1,,volunteered
0,42,,hurricane_aw,21.522866666666665,228,,6,1,,to
0,42,,hurricane_aw,21.522866666666665,233,,7,1,,help
0,42,,hurricane_aw,21.522866666666665,236,,8,1,,out
0,42,,hurricane_aw,21.522866666666665,228,,9,1,,in
0,42,,hurricane_aw,21.522866666666665,219,,10,1,,town.
0,42,,hurricane_aw,21.522866666666665,231,,11,1,,Some
0,42,,hurricane_aw,21.522866666666665,239,,12,1,,of
0,42,,hurricane_aw,21.522866666666665,215,,13,1,,the
0,42,,hurricane_aw,21.522866666666665,223,,14,1,,residents
0,42,,hurricane_aw,21.522866666666665,192,,15,1,,had
0,42,,hurricane_aw,21.522866666666665,243,,16,1,,evacuated.
0,42,,hurricane_aw,21.522866666666665,208,,17,1,,The
0,42,,hurricane_aw,21.522866666666665,232,,18,1,,rest
0,42,,hurricane_aw,21.522866666666665,211,,19,1,,stayed
0,42,,hurricane_aw,21.522866666666665,229,,20,1,,at
0,42,,hurricane_aw,21.522866666666665,226,,21,1,,home
0,42,,hurricane_aw,21.522866666666665,265,,22,1,,and
0,42,,hurricane_aw,21.522866666666665,222,,23,1,,foolishly
0,42,,hurricane_aw,21.522866666666665,223,,24,1,,risked
0,42,,hurricane_aw,21.522866666666665,210,,25,1,,their
0,42,,hurricane_aw,21.522866666666665,196,,26,1,,lives.
0,43,,filler_44,21.522866666666665,217,,0,1,,My
0,43,,filler_44,21.522866666666665,176,,1,1,,hobby
0,43,,filler_44,21.522866666666665,219,,2,1,,is
0,43,,filler_44,21.522866666666665,208,,3,1,,knitting.
0,43,,filler_44,21.522866666666665,219,,4,1,,I
0,43,,filler_44,21.522866666666665,216,,5,1,,have
0,43,,filler_44,21.522866666666665,222,,6,1,,learned
0,43,,filler_44,21.522866666666665,239,,7,1,,to
0,43,,filler_44,21.522866666666665,206,,8,1,,knit
0,43,,filler_44,21.522866666666665,239,,9,1,,really
0,43,,filler_44,21.522866666666665,267,,10,1,,"fast,"
0,43,,filler_44,21.522866666666665,204,,11,1,,even
0,43,,filler_44,21.522866666666665,225,,12,1,,when
0,43,,filler_44,21.522866666666665,244,,13,1,,I'm
0,43,,filler_44,21.522866666666665,229,,14,1,,thinking
0,43,,filler_44,21.522866666666665,243,,15,1,,of
0,43,,filler_44,21.522866666666665,225,,16,1,,something
0,43,,filler_44,21.522866666666665,276,,17,1,,else.
0,43,,filler_44,21.522866666666665,254,,18,1,,"Sometimes,"
0,43,,filler_44,21.522866666666665,224,,19,1,,I
0,43,,filler_44,21.522866666666665,217,,20,1,,can
0,43,,filler_44,21.522866666666665,233,,21,1,,knit
0,43,,filler_44,21.522866666666665,225,,22,1,,and
0,43,,filler_44,21.522866666666665,529,,23,1,,read
0,43,,filler_44,21.522866666666665,1,,24,1,,at
0,43,,filler_44,21.522866666666665,198,,25,1,,the
0,43,,filler_44,21.522866666666665,214,,26,1,,same
0,43,,filler_44,21.522866666666665,246,,27,1,,time.
0,44,,honors_cw,21.522866666666665,186,,0,1,,My
0,44,,honors_cw,21.522866666666665,185,,1,1,,daughter
0,44,,honors_cw,21.522866666666665,194,,2,1,,told
0,44,,honors_cw,21.522866666666665,202,,3,1,,me
0,44,,honors_cw,21.522866666666665,221,,4,1,,about
0,44,,honors_cw,21.522866666666665,181,,5,1,,the
0,44,,honors_cw,21.522866666666665,234,,6,1,,awards
0,44,,honors_cw,21.522866666666665,212,,7,1,,assembly
0,44,,honors_cw,21.522866666666665,205,,8,1,,at
0,44,,honors_cw,21.522866666666665,218,,9,1,,her
0,44,,honors_cw,21.522866666666665,209,,10,1,,school.
0,44,,honors_cw,21.522866666666665,195,,11,1,,Some
0,44,,honors_cw,21.522866666666665,208,,12,1,,of
0,44,,honors_cw,21.522866666666665,201,,13,1,,the
0,44,,honors_cw,21.522866666666665,229,,14,1,,honors
0,44,,honors_cw,21.522866666666665,207,,15,1,,students
0,44,,honors_cw,21.522866666666665,215,,16,1,,received
0,44,,honors_cw,21.522866666666665,229,,17,1,,prizes.
0,44,,honors_cw,21.522866666666665,232,,18,1,,In
0,44,,honors_cw,21.522866666666665,241,,19,1,,"fact,"
0,44,,honors_cw,21.522866666666665,210,,20,1,,they
0,44,,honors_cw,21.522866666666665,218,,21,1,,all
0,44,,honors_cw,21.522866666666665,210,,22,1,,did
0,44,,honors_cw,21.522866666666665,216,,23,1,,because
0,44,,honors_cw,21.522866666666665,259,,24,1,,the
0,44,,honors_cw,21.522866666666665,214,,25,1,,teachers
0,44,,honors_cw,21.522866666666665,253,,26,1,,didn't
0,44,,honors_cw,21.522866666666665,223,,27,1,,want
0,44,,honors_cw,21.522866666666665,251,,28,1,,any
0,44,,honors_cw,21.522866666666665,260,,29,1,,of
0,44,,honors_cw,21.522866666666665,236,,30,1,,them
0,44,,honors_cw,21.522866666666665,238,,31,1,,to
0,44,,honors_cw,21.522866666666665,230,,32,1,,feel
0,44,,honors_cw,21.522866666666665,202,,33,1,,left
0,44,,honors_cw,21.522866666666665,209,,34,1,,out.
0,45,,filler_51,21.522866666666665,199,,0,1,,For
0,45,,filler_51,21.522866666666665,166,,1,1,,my
0,45,,filler_51,21.522866666666665,203,,2,1,,"birthday,"
0,45,,filler_51,21.522866666666665,695,,3,1,,my
0,45,,filler_51,21.522866666666665,7,,4,1,,family
0,45,,filler_51,21.522866666666665,6,,5,1,,bought
0,45,,filler_51,21.522866666666665,126,,6,1,,me
0,45,,filler_51,21.522866666666665,222,,7,1,,an
0,45,,filler_51,21.522866666666665,219,,8,1,,ice
0,45,,filler_51,21.522866666666665,226,,9,1,,cream
0,45,,filler_51,21.522866666666665,207,,10,1,,cake.
0,45,,filler_51,21.522866666666665,205,,11,1,,The
0,45,,filler_51,21.522866666666665,210,,12,1,,inside
0,45,,filler_51,21.522866666666665,215,,13,1,,of
0,45,,filler_51,21.522866666666665,195,,14,1,,it
0,45,,filler_51,21.522866666666665,238,,15,1,,was
0,45,,filler_51,21.522866666666665,200,,16,1,,mint-chocolate
0,45,,filler_51,21.522866666666665,211,,17,1,,"chip,"
0,45,,filler_51,21.522866666666665,229,,18,1,,my
0,45,,filler_51,21.522866666666665,214,,19,1,,favorite
0,45,,filler_51,21.522866666666665,204,,20,1,,ice
0,45,,filler_51,21.522866666666665,227,,21,1,,cream
0,45,,filler_51,21.522866666666665,227,,22,1,,flavor.
0,45,,filler_51,21.522866666666665,237,,23,1,,The
0,45,,filler_51,21.522866666666665,206,,24,1,,cake
0,45,,filler_51,21.522866666666665,264,,25,1,,also
0,45,,filler_51,21.522866666666665,219,,26,1,,had
0,45,,filler_51,21.522866666666665,228,,27,1,,my
0,45,,filler_51,21.522866666666665,213,,28,1,,name
0,45,,filler_51,21.522866666666665,227,,29,1,,on
0,45,,filler_51,21.522866666666665,232,,30,1,,the
0,45,,filler_51,21.522866666666665,439,,31,1,,top
0,45,,filler_51,21.522866666666665,226,,32,1,,in
0,45,,filler_51,21.522866666666665,226,,33,1,,blue
0,45,,filler_51,21.522866666666665,207,,34,1,,and
0,45,,filler_51,21.522866666666665,220,,35,1,,green
0,45,,filler_51,21.522866666666665,210,,36,1,,icing.
0,46,,filler_55,21.522866666666665,201,,0,1,,In
0,46,,filler_55,21.522866666666665,177,,1,1,,the
0,46,,filler_55,21.522866666666665,208,,2,1,,"city,"
0,46,,filler_55,21.522866666666665,211,,3,1,,I
0,46,,filler_55,21.522866666666665,217,,4,1,,saw
0,46,,filler_55,21.522866666666665,233,,5,1,,a
0,46,,filler_55,21.522866666666665,517,,6,1,,street
0,46,,filler_55,21.522866666666665,15,,7,1,,performer
0,46,,filler_55,21.522866666666665,99,,8,1,,who
0,46,,filler_55,21.522866666666665,233,,9,1,,did
0,46,,filler_55,21.522866666666665,225,,10,1,,magic
0,46,,filler_55,21.522866666666665,226,,11,1,,tricks.
0,46,,filler_55,21.522866666666665,234,,12,1,,She
0,46,,filler_55,21.522866666666665,229,,13,1,,picked
0,46,,filler_55,21.522866666666665,237,,14,1,,me
0,46,,filler_55,21.522866666666665,237,,15,1,,as
0,46,,filler_55,21.522866666666665,221,,16,1,,a
0,46,,filler_55,21.522866666666665,217,,17,1,,volunteer
0,46,,filler_55,21.522866666666665,222,,18,1,,for
0,46,,filler_55,21.522866666666665,239,,19,1,,her
0,46,,filler_55,21.522866666666665,230,,20,1,,"act,"
0,46,,filler_55,21.522866666666665,229,,21,1,,and
0,46,,filler_55,21.522866666666665,227,,22,1,,asked
0,46,,filler_55,21.522866666666665,242,,23,1,,me
0,46,,filler_55,21.522866666666665,216,,24,1,,to
0,46,,filler_55,21.522866666666665,215,,25,1,,knot
0,46,,filler_55,21.522866666666665,250,,26,1,,ropes
0,46,,filler_55,21.522866666666665,244,,27,1,,around
0,46,,filler_55,21.522866666666665,232,,28,1,,her.
0,46,,filler_55,21.522866666666665,252,,29,1,,I
0,46,,filler_55,21.522866666666665,602,,30,1,,thought
0,46,,filler_55,21.522866666666665,24,,31,1,,I
0,46,,filler_55,21.522866666666665,59,,32,1,,tied
0,46,,filler_55,21.522866666666665,230,,33,1,,them
0,46,,filler_55,21.522866666666665,242,,34,1,,very
0,46,,filler_55,21.522866666666665,243,,35,1,,"tightly,"
0,46,,filler_55,21.522866666666665,234,,36,1,,but
0,46,,filler_55,21.522866666666665,234,,37,1,,she
0,46,,filler_55,21.522866666666665,222,,38,1,,still
0,46,,filler_55,21.522866666666665,241,,39,1,,managed
0,46,,filler_55,21.522866666666665,223,,40,1,,to
0,46,,filler_55,21.522866666666665,270,,41,1,,escape.
0,47,,filler_63,21.522866666666665,138,,0,1,,My
0,47,,filler_63,21.522866666666665,224,,1,1,,daughter
0,47,,filler_63,21.522866666666665,223,,2,1,,asked
0,47,,filler_63,21.522866666666665,216,,3,1,,me
0,47,,filler_63,21.522866666666665,239,,4,1,,to
0,47,,filler_63,21.522866666666665,427,,5,1,,make
0,47,,filler_63,21.522866666666665,247,,6,1,,brownies
0,47,,filler_63,21.522866666666665,265,,7,1,,for
0,47,,filler_63,21.522866666666665,223,,8,1,,the
0,47,,filler_63,21.522866666666665,213,,9,1,,bake
0,47,,filler_63,21.522866666666665,223,,10,1,,sale
0,47,,filler_63,21.522866666666665,238,,11,1,,at
0,47,,filler_63,21.522866666666665,244,,12,1,,her
0,47,,filler_63,21.522866666666665,269,,13,1,,school.
0,47,,filler_63,21.522866666666665,258,,14,1,,At
0,47,,filler_63,21.522866666666665,257,,15,1,,the
0,47,,filler_63,21.522866666666665,259,,16,1,,"sale,"
0,47,,filler_63,21.522866666666665,228,,17,1,,my
0,47,,filler_63,21.522866666666665,264,,18,1,,brownies
0,47,,filler_63,21.522866666666665,217,,19,1,,sold
0,47,,filler_63,21.522866666666665,248,,20,1,,out
0,47,,filler_63,21.522866666666665,241,,21,1,,during
0,47,,filler_63,21.522866666666665,235,,22,1,,the
0,47,,filler_63,21.522866666666665,269,,23,1,,first
0,47,,filler_63,21.522866666666665,220,,24,1,,hour.
0,47,,filler_63,21.522866666666665,242,,25,1,,They
0,47,,filler_63,21.522866666666665,252,,26,1,,were
0,47,,filler_63,21.522866666666665,240,,27,1,,so
0,47,,filler_63,21.522866666666665,221,,28,1,,popular
0,47,,filler_63,21.522866666666665,255,,29,1,,that
0,47,,filler_63,21.522866666666665,252,,30,1,,some
0,47,,filler_63,21.522866666666665,250,,31,1,,of
0,47,,filler_63,21.522866666666665,252,,32,1,,the
0,47,,filler_63,21.522866666666665,239,,33,1,,other
0,47,,filler_63,21.522866666666665,289,,34,1,,parents
0,47,,filler_63,21.522866666666665,241,,35,1,,asked
0,47,,filler_63,21.522866666666665,236,,36,1,,me
0,47,,filler_63,21.522866666666665,233,,37,1,,for
0,47,,filler_63,21.522866666666665,238,,38,1,,the
0,47,,filler_63,21.522866666666665,245,,39,1,,recipe.
0,48,,filler_31,21.522866666666665,385,,0,1,,I
0,48,,filler_31,21.522866666666665,202,,1,1,,have
0,48,,filler_31,21.522866666666665,431,,2,1,,seen
0,48,,filler_31,21.522866666666665,199,,3,1,,a
0,48,,filler_31,21.522866666666665,211,,4,1,,mouse
0,48,,filler_31,21.522866666666665,217,,5,1,,living
0,48,,filler_31,21.522866666666665,438,,6,1,,in
0,48,,filler_31,21.522866666666665,15,,7,1,,my
0,48,,filler_31,21.522866666666665,170,,8,1,,apartment.
0,48,,filler_31,21.522866666666665,222,,9,1,,"Yesterday,"
0,48,,filler_31,21.522866666666665,469,,10,1,,it
0,48,,filler_31,21.522866666666665,1,,11,1,,ate
0,48,,filler_31,21.522866666666665,199,,12,1,,a
0,48,,filler_31,21.522866666666665,225,,13,1,,bar
0,48,,filler_31,21.522866666666665,210,,14,1,,of
0,48,,filler_31,21.522866666666665,224,,15,1,,"chocolate,"
0,48,,filler_31,21.522866666666665,228,,16,1,,even
0,48,,filler_31,21.522866666666665,209,,17,1,,though
0,48,,filler_31,21.522866666666665,230,,18,1,,the
0,48,,filler_31,21.522866666666665,225,,19,1,,candy
0,48,,filler_31,21.522866666666665,230,,20,1,,was
0,48,,filler_31,21.522866666666665,241,,21,1,,in
0,48,,filler_31,21.522866666666665,250,,22,1,,a
0,48,,filler_31,21.522866666666665,216,,23,1,,closed
0,48,,filler_31,21.522866666666665,224,,24,1,,plastic
0,48,,filler_31,21.522866666666665,214,,25,1,,container.
0,49,,parking_cw,21.522866666666665,388,,0,1,,In
0,49,,parking_cw,21.522866666666665,191,,1,1,,the
0,49,,parking_cw,21.522866666666665,211,,2,1,,school
0,49,,parking_cw,21.522866666666665,204,,3,1,,parking
0,49,,parking_cw,21.522866666666665,210,,4,1,,"lot,"
0,49,,parking_cw,21.522866666666665,210,,5,1,,I
0,49,,parking_cw,21.522866666666665,185,,6,1,,passed
0,49,,parking_cw,21.522866666666665,213,,7,1,,by
0,49,,parking_cw,21.522866666666665,206,,8,1,,an
0,49,,parking_cw,21.522866666666665,429,,9,1,,old
0,49,,parking_cw,21.522866666666665,3,,10,1,,bus.
0,49,,parking_cw,21.522866666666665,219,,11,1,,Some
0,49,,parking_cw,21.522866666666665,205,,12,1,,of
0,49,,parking_cw,21.522866666666665,225,,13,1,,its
0,49,,parking_cw,21.522866666666665,217,,14,1,,tires
0,49,,parking_cw,21.522866666666665,223,,15,1,,were
0,49,,parking_cw,21.522866666666665,192,,16,1,,flat.
0,49,,parking_cw,21.522866666666665,238,,17,1,,In
0,49,,parking_cw,21.522866666666665,210,,18,1,,"fact,"
0,49,,parking_cw,21.522866666666665,231,,19,1,,they
0,49,,parking_cw,21.522866666666665,218,,20,1,,all
0,49,,parking_cw,21.522866666666665,231,,21,1,,were
0,49,,parking_cw,21.522866666666665,226,,22,1,,so
0,49,,parking_cw,21.522866666666665,212,,23,1,,the
0,49,,parking_cw,21.522866666666665,244,,24,1,,cost
0,49,,parking_cw,21.522866666666665,270,,25,1,,to
0,49,,parking_cw,21.522866666666665,238,,26,1,,repair
0,49,,parking_cw,21.522866666666665,219,,27,1,,it
0,49,,parking_cw,21.522866666666665,229,,28,1,,would
0,49,,parking_cw,21.522866666666665,219,,29,1,,be
0,49,,parking_cw,21.522866666666665,218,,30,1,,enormous.
0,50,,filler_65,21.522866666666665,388,,0,1,,Because
0,50,,filler_65,21.522866666666665,206,,1,1,,of
0,50,,filler_65,21.522866666666665,217,,2,1,,the
0,50,,filler_65,21.522866666666665,222,,3,1,,snow
0,50,,filler_65,21.522866666666665,202,,4,1,,"storm,"
0,50,,filler_65,21.522866666666665,207,,5,1,,my
0,50,,filler_65,21.522866666666665,205,,6,1,,plane
0,50,,filler_65,21.522866666666665,213,,7,1,,was
0,50,,filler_65,21.522866666666665,211,,8,1,,eight
0,50,,filler_65,21.522866666666665,212,,9,1,,hours
0,50,,filler_65,21.522866666666665,220,,10,1,,late.
0,50,,filler_65,21.522866666666665,231,,11,1,,Though
0,50,,filler_65,21.522866666666665,196,,12,1,,I
0,50,,filler_65,21.522866666666665,224,,13,1,,tried
0,50,,filler_65,21.522866666666665,237,,14,1,,to
0,50,,filler_65,21.522866666666665,203,,15,1,,make
0,50,,filler_65,21.522866666666665,239,,16,1,,the
0,50,,filler_65,21.522866666666665,274,,17,1,,best
0,50,,filler_65,21.522866666666665,261,,18,1,,of
0,50,,filler_65,21.522866666666665,256,,19,1,,my
0,50,,filler_65,21.522866666666665,404,,20,1,,time
0,50,,filler_65,21.522866666666665,203,,21,1,,in
0,50,,filler_65,21.522866666666665,233,,22,1,,the
0,50,,filler_65,21.522866666666665,251,,23,1,,"airport,"
0,50,,filler_65,21.522866666666665,226,,24,1,,there
0,50,,filler_65,21.522866666666665,230,,25,1,,wasn't
0,50,,filler_65,21.522866666666665,225,,26,1,,much
0,50,,filler_65,21.522866666666665,216,,27,1,,for
0,50,,filler_65,21.522866666666665,238,,28,1,,me
0,50,,filler_65,21.522866666666665,268,,29,1,,to
0,50,,filler_65,21.522866666666665,224,,30,1,,do.
0,50,,filler_65,21.522866666666665,219,,31,1,,I
0,50,,filler_65,21.522866666666665,223,,32,1,,ended
0,50,,filler_65,21.522866666666665,231,,33,1,,up
0,50,,filler_65,21.522866666666665,245,,34,1,,solving
0,50,,filler_65,21.522866666666665,227,,35,1,,crossword
0,50,,filler_65,21.522866666666665,244,,36,1,,puzzles
0,50,,filler_65,21.522866666666665,216,,37,1,,for
0,50,,filler_65,21.522866666666665,254,,38,1,,most
0,50,,filler_65,21.522866666666665,236,,39,1,,of
0,50,,filler_65,21.522866666666665,223,,40,1,,the
0,50,,filler_65,21.522866666666665,254,,41,1,,time.
0,51,,filler_54,21.522866666666665,155,,0,1,,I
0,51,,filler_54,21.522866666666665,199,,1,1,,went
0,51,,filler_54,21.522866666666665,208,,2,1,,to
0,51,,filler_54,21.522866666666665,213,,3,1,,the
0,51,,filler_54,21.522866666666665,208,,4,1,,"zoo,"
0,51,,filler_54,21.522866666666665,211,,5,1,,but
0,51,,filler_54,21.522866666666665,193,,6,1,,my
0,51,,filler_54,21.522866666666665,252,,7,1,,favorite
0,51,,filler_54,21.522866666666665,226,,8,1,,animals
0,51,,filler_54,21.522866666666665,230,,9,1,,were
0,51,,filler_54,21.522866666666665,238,,10,1,,all
0,51,,filler_54,21.522866666666665,228,,11,1,,asleep.
0,51,,filler_54,21.522866666666665,231,,12,1,,One
0,51,,filler_54,21.522866666666665,215,,13,1,,of
0,51,,filler_54,21.522866666666665,232,,14,1,,the
0,51,,filler_54,21.522866666666665,236,,15,1,,pandas
0,51,,filler_54,21.522866666666665,206,,16,1,,had
0,51,,filler_54,21.522866666666665,236,,17,1,,sprawled
0,51,,filler_54,21.522866666666665,225,,18,1,,out
0,51,,filler_54,21.522866666666665,216,,19,1,,on
0,51,,filler_54,21.522866666666665,229,,20,1,,a
0,51,,filler_54,21.522866666666665,255,,21,1,,rock.
0,51,,filler_54,21.522866666666665,201,,22,1,,I
0,51,,filler_54,21.522866666666665,205,,23,1,,was
0,51,,filler_54,21.522866666666665,242,,24,1,,happy
0,51,,filler_54,21.522866666666665,234,,25,1,,I'd
0,51,,filler_54,21.522866666666665,229,,26,1,,gotten
0,51,,filler_54,21.522866666666665,213,,27,1,,a
0,51,,filler_54,21.522866666666665,230,,28,1,,chance
0,51,,filler_54,21.522866666666665,225,,29,1,,to
0,51,,filler_54,21.522866666666665,224,,30,1,,see
0,51,,filler_54,21.522866666666665,265,,31,1,,"it,"
0,51,,filler_54,21.522866666666665,235,,32,1,,even
0,51,,filler_54,21.522866666666665,216,,33,1,,though
0,51,,filler_54,21.522866666666665,227,,34,1,,it
0,51,,filler_54,21.522866666666665,220,,35,1,,was
0,51,,filler_54,21.522866666666665,196,,36,1,,sleeping.
0,52,,filler_17,21.522866666666665,195,,0,1,,I
0,52,,filler_17,21.522866666666665,218,,1,1,,got
0,52,,filler_17,21.522866666666665,238,,2,1,,sick
0,52,,filler_17,21.522866666666665,215,,3,1,,with
0,52,,filler_17,21.522866666666665,220,,4,1,,a
0,52,,filler_17,21.522866666666665,228,,5,1,,cold
0,52,,filler_17,21.522866666666665,209,,6,1,,over
0,52,,filler_17,21.522866666666665,222,,7,1,,the
0,52,,filler_17,21.522866666666665,235,,8,1,,weekend.
0,52,,filler_17,21.522866666666665,219,,9,1,,I
0,52,,filler_17,21.522866666666665,222,,10,1,,am
0,52,,filler_17,21.522866666666665,228,,11,1,,still
0,52,,filler_17,21.522866666666665,229,,12,1,,taking
0,52,,filler_17,21.522866666666665,207,,13,1,,decongestants.
0,53,,filler_56,21.522866666666665,190,,0,1,,I
0,53,,filler_56,21.522866666666665,324,,1,1,,took
0,53,,filler_56,21.522866666666665,187,,2,1,,my
0,53,,filler_56,21.522866666666665,208,,3,1,,little
0,53,,filler_56,21.522866666666665,223,,4,1,,sister
0,53,,filler_56,21.522866666666665,215,,5,1,,to
0,53,,filler_56,21.522866666666665,219,,6,1,,the
0,53,,filler_56,21.522866666666665,231,,7,1,,beach.
0,53,,filler_56,21.522866666666665,211,,8,1,,The
0,53,,filler_56,21.522866666666665,227,,9,1,,water
0,53,,filler_56,21.522866666666665,211,,10,1,,was
0,53,,filler_56,21.522866666666665,270,,11,1,,too
0,53,,filler_56,21.522866666666665,227,,12,1,,cold
0,53,,filler_56,21.522866666666665,206,,13,1,,to
0,53,,filler_56,21.522866666666665,233,,14,1,,swim
0,53,,filler_56,21.522866666666665,213,,15,1,,"in,"
0,53,,filler_56,21.522866666666665,221,,16,1,,so
0,53,,filler_56,21.522866666666665,268,,17,1,,we
0,53,,filler_56,21.522866666666665,241,,18,1,,played
0,53,,filler_56,21.522866666666665,220,,19,1,,on
0,53,,filler_56,21.522866666666665,266,,20,1,,land
0,53,,filler_56,21.522866666666665,248,,21,1,,instead.
0,53,,filler_56,21.522866666666665,195,,22,1,,We
0,53,,filler_56,21.522866666666665,248,,23,1,,made
0,53,,filler_56,21.522866666666665,198,,24,1,,a
0,53,,filler_56,21.522866666666665,228,,25,1,,sandcastle
0,53,,filler_56,21.522866666666665,231,,26,1,,and
0,53,,filler_56,21.522866666666665,247,,27,1,,then
0,53,,filler_56,21.522866666666665,263,,28,1,,took
0,53,,filler_56,21.522866666666665,243,,29,1,,turns
0,53,,filler_56,21.522866666666665,287,,30,1,,burying
0,53,,filler_56,21.522866666666665,201,,31,1,,each
0,53,,filler_56,21.522866666666665,250,,32,1,,other
0,53,,filler_56,21.522866666666665,230,,33,1,,in
0,53,,filler_56,21.522866666666665,236,,34,1,,the
0,53,,filler_56,21.522866666666665,490,,35,1,,sand.
0,54,,filler_34,21.522866666666665,384,,0,1,,I
0,54,,filler_34,21.522866666666665,238,,1,1,,went
0,54,,filler_34,21.522866666666665,149,,2,1,,to
0,54,,filler_34,21.522866666666665,203,,3,1,,the
0,54,,filler_34,21.522866666666665,180,,4,1,,movie
0,54,,filler_34,21.522866666666665,196,,5,1,,theater
0,54,,filler_34,21.522866666666665,186,,6,1,,last
0,54,,filler_34,21.522866666666665,209,,7,1,,weekend.
0,54,,filler_34,21.522866666666665,205,,8,1,,The
0,54,,filler_34,21.522866666666665,217,,9,1,,movie
0,54,,filler_34,21.522866666666665,202,,10,1,,I'd
0,54,,filler_34,21.522866666666665,215,,11,1,,planned
0,54,,filler_34,21.522866666666665,221,,12,1,,on
0,54,,filler_34,21.522866666666665,212,,13,1,,seeing
0,54,,filler_34,21.522866666666665,216,,14,1,,was
0,54,,filler_34,21.522866666666665,225,,15,1,,sold
0,54,,filler_34,21.522866666666665,201,,16,1,,"out,"
0,54,,filler_34,21.522866666666665,214,,17,1,,so
0,54,,filler_34,21.522866666666665,218,,18,1,,I
0,54,,filler_34,21.522866666666665,245,,19,1,,bought
0,54,,filler_34,21.522866666666665,201,,20,1,,tickets
0,54,,filler_34,21.522866666666665,249,,21,1,,for
0,54,,filler_34,21.522866666666665,212,,22,1,,the
0,54,,filler_34,21.522866666666665,231,,23,1,,next
0,54,,filler_34,21.522866666666665,216,,24,1,,available
0,54,,filler_34,21.522866666666665,230,,25,1,,show.
0,54,,filler_34,21.522866666666665,228,,26,1,,To
0,54,,filler_34,21.522866666666665,245,,27,1,,pass
0,54,,filler_34,21.522866666666665,283,,28,1,,the
0,54,,filler_34,21.522866666666665,283,,29,1,,"time,"
0,54,,filler_34,21.522866666666665,228,,30,1,,I
0,54,,filler_34,21.522866666666665,262,,31,1,,went
0,54,,filler_34,21.522866666666665,246,,32,1,,to
0,54,,filler_34,21.522866666666665,106,,33,1,,the
0,54,,filler_34,21.522866666666665,161,,34,1,,ice
0,54,,filler_34,21.522866666666665,251,,35,1,,cream
0,54,,filler_34,21.522866666666665,251,,36,1,,parlor
0,54,,filler_34,21.522866666666665,265,,37,1,,next
0,54,,filler_34,21.522866666666665,229,,38,1,,door.
0,55,,filler_49,21.522866666666665,212,,0,1,,The
0,55,,filler_49,21.522866666666665,196,,1,1,,weather
0,55,,filler_49,21.522866666666665,207,,2,1,,was
0,55,,filler_49,21.522866666666665,203,,3,1,,so
0,55,,filler_49,21.522866666666665,202,,4,1,,warm
0,55,,filler_49,21.522866666666665,208,,5,1,,that
0,55,,filler_49,21.522866666666665,209,,6,1,,I
0,55,,filler_49,21.522866666666665,201,,7,1,,decided
0,55,,filler_49,21.522866666666665,212,,8,1,,to
0,55,,filler_49,21.522866666666665,209,,9,1,,do
0,55,,filler_49,21.522866666666665,224,,10,1,,my
0,55,,filler_49,21.522866666666665,220,,11,1,,homework
0,55,,filler_49,21.522866666666665,215,,12,1,,outside.
0,55,,filler_49,21.522866666666665,212,,13,1,,I
0,55,,filler_49,21.522866666666665,221,,14,1,,sat
0,55,,filler_49,21.522866666666665,226,,15,1,,beside
0,55,,filler_49,21.522866666666665,209,,16,1,,a
0,55,,filler_49,21.522866666666665,243,,17,1,,fountain
0,55,,filler_49,21.522866666666665,219,,18,1,,that's
0,55,,filler_49,21.522866666666665,217,,19,1,,in
0,55,,filler_49,21.522866666666665,218,,20,1,,the
0,55,,filler_49,21.522866666666665,209,,21,1,,park
0,55,,filler_49,21.522866666666665,228,,22,1,,near
0,55,,filler_49,21.522866666666665,237,,23,1,,my
0,55,,filler_49,21.522866666666665,236,,24,1,,house.
0,55,,filler_49,21.522866666666665,247,,25,1,,"Suddenly,"
0,55,,filler_49,21.522866666666665,194,,26,1,,a
0,55,,filler_49,21.522866666666665,654,,27,1,,loud
0,55,,filler_49,21.522866666666665,3,,28,1,,noise
0,55,,filler_49,21.522866666666665,365,,29,1,,startled
0,55,,filler_49,21.522866666666665,2,,30,1,,"me,"
0,55,,filler_49,21.522866666666665,236,,31,1,,and
0,55,,filler_49,21.522866666666665,237,,32,1,,I
0,55,,filler_49,21.522866666666665,229,,33,1,,dropped
0,55,,filler_49,21.522866666666665,222,,34,1,,my
0,55,,filler_49,21.522866666666665,242,,35,1,,textbook
0,55,,filler_49,21.522866666666665,473,,36,1,,in
0,55,,filler_49,21.522866666666665,241,,37,1,,the
0,55,,filler_49,21.522866666666665,332,,38,1,,water.
0,56,,bus_lw,21.522866666666665,204,,0,1,,I
0,56,,bus_lw,21.522866666666665,173,,1,1,,stopped
0,56,,bus_lw,21.522866666666665,219,,2,1,,to
0,56,,bus_lw,21.522866666666665,213,,3,1,,see
0,56,,bus_lw,21.522866666666665,204,,4,1,,if
0,56,,bus_lw,21.522866666666665,222,,5,1,,I
0,56,,bus_lw,21.522866666666665,216,,6,1,,could
0,56,,bus_lw,21.522866666666665,212,,7,1,,help
0,56,,bus_lw,21.522866666666665,213,,8,1,,with
0,56,,bus_lw,21.522866666666665,233,,9,1,,the
0,56,,bus_lw,21.522866666666665,246,,10,1,,bus
0,56,,bus_lw,21.522866666666665,236,,11,1,,accident
0,56,,bus_lw,21.522866666666665,236,,12,1,,on
0,56,,bus_lw,21.522866666666665,240,,13,1,,the
0,56,,bus_lw,21.522866666666665,220,,14,1,,side
0,56,,bus_lw,21.522866666666665,206,,15,1,,of
0,56,,bus_lw,21.522866666666665,223,,16,1,,the
0,56,,bus_lw,21.522866666666665,228,,17,1,,highway.
0,56,,bus_lw,21.522866666666665,225,,18,1,,Only
0,56,,bus_lw,21.522866666666665,232,,19,1,,some
0,56,,bus_lw,21.522866666666665,281,,20,1,,of
0,56,,bus_lw,21.522866666666665,212,,21,1,,the
0,56,,bus_lw,21.522866666666665,242,,22,1,,passengers
0,56,,bus_lw,21.522866666666665,246,,23,1,,were
0,56,,bus_lw,21.522866666666665,248,,24,1,,still
0,56,,bus_lw,21.522866666666665,290,,25,1,,alive.
0,56,,bus_lw,21.522866666666665,240,,26,1,,The
0,56,,bus_lw,21.522866666666665,240,,27,1,,others
0,56,,bus_lw,21.522866666666665,202,,28,1,,were
0,56,,bus_lw,21.522866666666665,261,,29,1,,killed
0,56,,bus_lw,21.522866666666665,210,,30,1,,on
0,56,,bus_lw,21.522866666666665,229,,31,1,,impact
0,56,,bus_lw,21.522866666666665,247,,32,1,,and
0,56,,bus_lw,21.522866666666665,224,,33,1,,there
0,56,,bus_lw,21.522866666666665,234,,34,1,,was
0,56,,bus_lw,21.522866666666665,275,,35,1,,no
0,56,,bus_lw,21.522866666666665,203,,36,1,,opportunity
0,56,,bus_lw,21.522866666666665,228,,37,1,,to
0,56,,bus_lw,21.522866666666665,211,,38,1,,save
0,56,,bus_lw,21.522866666666665,326,,39,1,,them.
0,57,,filler_62,21.522866666666665,192,,0,1,,After
0,57,,filler_62,21.522866666666665,198,,1,1,,I
0,57,,filler_62,21.522866666666665,220,,2,1,,got
0,57,,filler_62,21.522866666666665,222,,3,1,,back
0,57,,filler_62,21.522866666666665,205,,4,1,,from
0,57,,filler_62,21.522866666666665,225,,5,1,,my
0,57,,filler_62,21.522866666666665,199,,6,1,,trip
0,57,,filler_62,21.522866666666665,209,,7,1,,to
0,57,,filler_62,21.522866666666665,211,,8,1,,the
0,57,,filler_62,21.522866666666665,215,,9,1,,"equator,"
0,57,,filler_62,21.522866666666665,231,,10,1,,I
0,57,,filler_62,21.522866666666665,213,,11,1,,started
0,57,,filler_62,21.522866666666665,212,,12,1,,feeling
0,57,,filler_62,21.522866666666665,257,,13,1,,very
0,57,,filler_62,21.522866666666665,212,,14,1,,ill.
0,57,,filler_62,21.522866666666665,237,,15,1,,My
0,57,,filler_62,21.522866666666665,246,,16,1,,doctor
0,57,,filler_62,21.522866666666665,217,,17,1,,told
0,57,,filler_62,21.522866666666665,252,,18,1,,me
0,57,,filler_62,21.522866666666665,217,,19,1,,I
0,57,,filler_62,21.522866666666665,266,,20,1,,had
0,57,,filler_62,21.522866666666665,247,,21,1,,contracted
0,57,,filler_62,21.522866666666665,216,,22,1,,a
0,57,,filler_62,21.522866666666665,246,,23,1,,rare
0,57,,filler_62,21.522866666666665,248,,24,1,,tropical
0,57,,filler_62,21.522866666666665,232,,25,1,,disease.
0,57,,filler_62,21.522866666666665,228,,26,1,,"Luckily,"
0,57,,filler_62,21.522866666666665,211,,27,1,,there
0,57,,filler_62,21.522866666666665,288,,28,1,,are
0,57,,filler_62,21.522866666666665,203,,29,1,,drugs
0,57,,filler_62,21.522866666666665,220,,30,1,,which
0,57,,filler_62,21.522866666666665,266,,31,1,,effectively
0,57,,filler_62,21.522866666666665,229,,32,1,,treat
0,57,,filler_62,21.522866666666665,211,,33,1,,"it,"
0,57,,filler_62,21.522866666666665,248,,34,1,,and
0,57,,filler_62,21.522866666666665,224,,35,1,,I
0,57,,filler_62,21.522866666666665,271,,36,1,,am
0,57,,filler_62,21.522866666666665,296,,37,1,,now
0,57,,filler_62,21.522866666666665,719,,38,1,,healthy.
0,58,,filler_13,21.522866666666665,189,,0,1,,Today
0,58,,filler_13,21.522866666666665,193,,1,1,,the
0,58,,filler_13,21.522866666666665,187,,2,1,,United
0,58,,filler_13,21.522866666666665,216,,3,1,,Nations
0,58,,filler_13,21.522866666666665,189,,4,1,,announced
0,58,,filler_13,21.522866666666665,198,,5,1,,in
0,58,,filler_13,21.522866666666665,183,,6,1,,New
0,58,,filler_13,21.522866666666665,200,,7,1,,York
0,58,,filler_13,21.522866666666665,211,,8,1,,City
0,58,,filler_13,21.522866666666665,207,,9,1,,a
0,58,,filler_13,21.522866666666665,218,,10,1,,new
0,58,,filler_13,21.522866666666665,210,,11,1,,plan
0,58,,filler_13,21.522866666666665,219,,12,1,,for
0,58,,filler_13,21.522866666666665,201,,13,1,,world
0,58,,filler_13,21.522866666666665,211,,14,1,,peace.
0,58,,filler_13,21.522866666666665,217,,15,1,,I
0,58,,filler_13,21.522866666666665,214,,16,1,,would
0,58,,filler_13,21.522866666666665,215,,17,1,,like
0,58,,filler_13,21.522866666666665,226,,18,1,,to
0,58,,filler_13,21.522866666666665,202,,19,1,,be
0,58,,filler_13,21.522866666666665,226,,20,1,,a
0,58,,filler_13,21.522866666666665,215,,21,1,,United
0,58,,filler_13,21.522866666666665,219,,22,1,,Nations
0,58,,filler_13,21.522866666666665,242,,23,1,,ambassador
0,58,,filler_13,21.522866666666665,203,,24,1,,for
0,58,,filler_13,21.522866666666665,215,,25,1,,the
0,58,,filler_13,21.522866666666665,274,,26,1,,United
0,58,,filler_13,21.522866666666665,206,,27,1,,States
0,58,,filler_13,21.522866666666665,229,,28,1,,but
0,58,,filler_13,21.522866666666665,214,,29,1,,don't
0,58,,filler_13,21.522866666666665,228,,30,1,,want
0,58,,filler_13,21.522866666666665,215,,31,1,,to
0,58,,filler_13,21.522866666666665,225,,32,1,,travel
0,58,,filler_13,21.522866666666665,233,,33,1,,to
0,58,,filler_13,21.522866666666665,231,,34,1,,Europe.
0,58,,filler_13,21.522866666666665,252,,35,1,,"Luckily,"
0,58,,filler_13,21.522866666666665,203,,36,1,,the
0,58,,filler_13,21.522866666666665,244,,37,1,,United
0,58,,filler_13,21.522866666666665,240,,38,1,,Nations
0,58,,filler_13,21.522866666666665,233,,39,1,,is
0,58,,filler_13,21.522866666666665,247,,40,1,,based
0,58,,filler_13,21.522866666666665,572,,41,1,,in
0,58,,filler_13,21.522866666666665,5,,42,1,,New
0,58,,filler_13,21.522866666666665,127,,43,1,,York.
0,59,,filler_3,21.522866666666665,175,,0,0,,Everyone
0,59,,filler_3,21.522866666666665,181,,1,0,,knows
0,59,,filler_3,21.522866666666665,182,,2,0,,that
0,59,,filler_3,21.522866666666665,184,,3,0,,M*A*S*H
0,59,,filler_3,21.522866666666665,188,,4,0,,took
0,59,,filler_3,21.522866666666665,183,,5,0,,place
0,59,,filler_3,21.522866666666665,195,,6,0,,during
0,59,,filler_3,21.522866666666665,181,,7,0,,the
0,59,,filler_3,21.522866666666665,163,,8,0,,Korean
0,59,,filler_3,21.522866666666665,179,,9,0,,War.
0,59,,filler_3,21.522866666666665,175,,10,0,,I
