trial_id,word_idx,Answer.time_in_minutes,workerid,stim,word,response_correct,response,slide_number_in_experiment,trial_no,rt
,,18.086383333333334,0,0,,,Mary,bot_check,,
filler_37,0,18.086383333333334,0,,I,1,,,0,368
filler_37,1,18.086383333333334,0,,enjoy,1,,,0,353
filler_37,2,18.086383333333334,0,,playing,1,,,0,208
filler_37,3,18.086383333333334,0,,board,1,,,0,288
filler_37,4,18.086383333333334,0,,games,1,,,0,270
filler_37,5,18.086383333333334,0,,with,1,,,0,244
filler_37,6,18.086383333333334,0,,my,1,,,0,243
filler_37,7,18.086383333333334,0,,uncle.,1,,,0,225
filler_37,8,18.086383333333334,0,,The,1,,,0,208
filler_37,9,18.086383333333334,0,,last,1,,,0,203
filler_37,10,18.086383333333334,0,,time,1,,,0,216
filler_37,11,18.086383333333334,0,,we,1,,,0,187
filler_37,12,18.086383333333334,0,,played,1,,,0,198
filler_37,13,18.086383333333334,0,,"together,",1,,,0,221
filler_37,14,18.086383333333334,0,,I,1,,,0,243
filler_37,15,18.086383333333334,0,,thought,1,,,0,233
filler_37,16,18.086383333333334,0,,I,1,,,0,234
filler_37,17,18.086383333333334,0,,had,1,,,0,218
filler_37,18,18.086383333333334,0,,won.,1,,,0,208
filler_37,19,18.086383333333334,0,,When,1,,,0,206
filler_37,20,18.086383333333334,0,,we,1,,,0,213
filler_37,21,18.086383333333334,0,,tallied,1,,,0,213
filler_37,22,18.086383333333334,0,,up,1,,,0,221
filler_37,23,18.086383333333334,0,,the,1,,,0,201
filler_37,24,18.086383333333334,0,,scores,1,,,0,226
filler_37,25,18.086383333333334,0,,I,1,,,0,220
filler_37,26,18.086383333333334,0,,discovered,1,,,0,224
filler_37,27,18.086383333333334,0,,that,1,,,0,218
filler_37,28,18.086383333333334,0,,he,1,,,0,186
filler_37,29,18.086383333333334,0,,beat,1,,,0,221
filler_37,30,18.086383333333334,0,,me,1,,,0,210
filler_37,31,18.086383333333334,0,,by,1,,,0,229
filler_37,32,18.086383333333334,0,,one,1,,,0,243
filler_37,33,18.086383333333334,0,,point.,1,,,0,266
filler_36,0,18.086383333333334,0,,I,1,,,1,246
filler_36,1,18.086383333333334,0,,planned,1,,,1,234
filler_36,2,18.086383333333334,0,,to,1,,,1,206
filler_36,3,18.086383333333334,0,,have,1,,,1,190
filler_36,4,18.086383333333334,0,,a,1,,,1,184
filler_36,5,18.086383333333334,0,,picnic,1,,,1,198
filler_36,6,18.086383333333334,0,,in,1,,,1,166
filler_36,7,18.086383333333334,0,,the,1,,,1,181
filler_36,8,18.086383333333334,0,,park.,1,,,1,188
filler_36,9,18.086383333333334,0,,The,1,,,1,186
filler_36,10,18.086383333333334,0,,weather,1,,,1,196
filler_36,11,18.086383333333334,0,,forecast,1,,,1,203
filler_36,12,18.086383333333334,0,,predicted,1,,,1,200
filler_36,13,18.086383333333334,0,,"rain,",1,,,1,188
filler_36,14,18.086383333333334,0,,so,1,,,1,223
filler_36,15,18.086383333333334,0,,I,1,,,1,218
filler_36,16,18.086383333333334,0,,thought,1,,,1,198
filler_36,17,18.086383333333334,0,,I,1,,,1,191
filler_36,18,18.086383333333334,0,,would,1,,,1,193
filler_36,19,18.086383333333334,0,,have,1,,,1,206
filler_36,20,18.086383333333334,0,,to,1,,,1,190
filler_36,21,18.086383333333334,0,,cancel,1,,,1,188
filler_36,22,18.086383333333334,0,,it.,1,,,1,206
filler_36,23,18.086383333333334,0,,"However,",1,,,1,191
filler_36,24,18.086383333333334,0,,the,1,,,1,201
filler_36,25,18.086383333333334,0,,day,1,,,1,210
filler_36,26,18.086383333333334,0,,turned,1,,,1,196
filler_36,27,18.086383333333334,0,,out,1,,,1,209
filler_36,28,18.086383333333334,0,,sunny,1,,,1,193
filler_36,29,18.086383333333334,0,,after,1,,,1,201
filler_36,30,18.086383333333334,0,,all.,1,,,1,206
filler_44,0,18.086383333333334,0,,My,1,,,2,271
filler_44,1,18.086383333333334,0,,hobby,1,,,2,200
filler_44,2,18.086383333333334,0,,is,1,,,2,201
filler_44,3,18.086383333333334,0,,knitting.,1,,,2,215
filler_44,4,18.086383333333334,0,,I,1,,,2,229
filler_44,5,18.086383333333334,0,,have,1,,,2,221
filler_44,6,18.086383333333334,0,,learned,1,,,2,233
filler_44,7,18.086383333333334,0,,to,1,,,2,238
filler_44,8,18.086383333333334,0,,knit,1,,,2,209
filler_44,9,18.086383333333334,0,,really,1,,,2,215
filler_44,10,18.086383333333334,0,,"fast,",1,,,2,198
filler_44,11,18.086383333333334,0,,even,1,,,2,202
filler_44,12,18.086383333333334,0,,when,1,,,2,188
filler_44,13,18.086383333333334,0,,I'm,1,,,2,194
filler_44,14,18.086383333333334,0,,thinking,1,,,2,188
filler_44,15,18.086383333333334,0,,of,1,,,2,216
filler_44,16,18.086383333333334,0,,something,1,,,2,218
filler_44,17,18.086383333333334,0,,else.,1,,,2,196
filler_44,18,18.086383333333334,0,,"Sometimes,",1,,,2,223
filler_44,19,18.086383333333334,0,,I,1,,,2,213
filler_44,20,18.086383333333334,0,,can,1,,,2,203
filler_44,21,18.086383333333334,0,,knit,1,,,2,228
filler_44,22,18.086383333333334,0,,and,1,,,2,198
filler_44,23,18.086383333333334,0,,read,1,,,2,204
filler_44,24,18.086383333333334,0,,at,1,,,2,215
filler_44,25,18.086383333333334,0,,the,1,,,2,209
filler_44,26,18.086383333333334,0,,same,1,,,2,203
filler_44,27,18.086383333333334,0,,time.,1,,,2,214
filler_24,0,18.086383333333334,0,,I,1,,,3,246
filler_24,1,18.086383333333334,0,,love,1,,,3,200
filler_24,2,18.086383333333334,0,,to,1,,,3,210
filler_24,3,18.086383333333334,0,,play,1,,,3,189
filler_24,4,18.086383333333334,0,,card,1,,,3,183
filler_24,5,18.086383333333334,0,,games,1,,,3,156
filler_24,6,18.086383333333334,0,,with,1,,,3,204
filler_24,7,18.086383333333334,0,,my,1,,,3,173
filler_24,8,18.086383333333334,0,,"friends,",1,,,3,178
filler_24,9,18.086383333333334,0,,and,1,,,3,166
filler_24,10,18.086383333333334,0,,we,1,,,3,198
filler_24,11,18.086383333333334,0,,are,1,,,3,234
filler_24,12,18.086383333333334,0,,going,1,,,3,202
filler_24,13,18.086383333333334,0,,to,1,,,3,179
filler_24,14,18.086383333333334,0,,play,1,,,3,193
filler_24,15,18.086383333333334,0,,Hearts,1,,,3,186
filler_24,16,18.086383333333334,0,,tonight.,1,,,3,203
filler_24,17,18.086383333333334,0,,We,1,,,3,214
filler_24,18,18.086383333333334,0,,always,1,,,3,190
filler_24,19,18.086383333333334,0,,enjoy,1,,,3,213
filler_24,20,18.086383333333334,0,,playing,1,,,3,223
filler_24,21,18.086383333333334,0,,a,1,,,3,225
filler_24,22,18.086383333333334,0,,game,1,,,3,218
filler_24,23,18.086383333333334,0,,on,1,,,3,188
filler_24,24,18.086383333333334,0,,Sunday,1,,,3,216
filler_24,25,18.086383333333334,0,,evening.,1,,,3,203
filler_24,26,18.086383333333334,0,,After,1,,,3,203
filler_24,27,18.086383333333334,0,,a,1,,,3,201
filler_24,28,18.086383333333334,0,,long,1,,,3,195
filler_24,29,18.086383333333334,0,,day,1,,,3,198
filler_24,30,18.086383333333334,0,,of,1,,,3,201
filler_24,31,18.086383333333334,0,,study,1,,,3,216
filler_24,32,18.086383333333334,0,,and,1,,,3,208
filler_24,33,18.086383333333334,0,,"rest,",1,,,3,218
filler_24,34,18.086383333333334,0,,cards,1,,,3,184
filler_24,35,18.086383333333334,0,,are,1,,,3,218
filler_24,36,18.086383333333334,0,,the,1,,,3,198
filler_24,37,18.086383333333334,0,,perfect,1,,,3,214
filler_24,38,18.086383333333334,0,,way,1,,,3,201
filler_24,39,18.086383333333334,0,,to,1,,,3,218
filler_24,40,18.086383333333334,0,,relax.,1,,,3,209
filler_31,0,18.086383333333334,0,,I,1,,,4,254
filler_31,1,18.086383333333334,0,,have,1,,,4,198
filler_31,2,18.086383333333334,0,,seen,1,,,4,226
filler_31,3,18.086383333333334,0,,a,1,,,4,230
filler_31,4,18.086383333333334,0,,mouse,1,,,4,201
filler_31,5,18.086383333333334,0,,living,1,,,4,210
filler_31,6,18.086383333333334,0,,in,1,,,4,201
filler_31,7,18.086383333333334,0,,my,1,,,4,219
filler_31,8,18.086383333333334,0,,apartment.,1,,,4,201
filler_31,9,18.086383333333334,0,,"Yesterday,",1,,,4,218
filler_31,10,18.086383333333334,0,,it,1,,,4,243
filler_31,11,18.086383333333334,0,,ate,1,,,4,219
filler_31,12,18.086383333333334,0,,a,1,,,4,205
filler_31,13,18.086383333333334,0,,bar,1,,,4,211
filler_31,14,18.086383333333334,0,,of,1,,,4,214
filler_31,15,18.086383333333334,0,,"chocolate,",1,,,4,215
filler_31,16,18.086383333333334,0,,even,1,,,4,203
filler_31,17,18.086383333333334,0,,though,1,,,4,795
filler_31,18,18.086383333333334,0,,the,1,,,4,200
filler_31,19,18.086383333333334,0,,candy,1,,,4,214
filler_31,20,18.086383333333334,0,,was,1,,,4,226
filler_31,21,18.086383333333334,0,,in,1,,,4,241
filler_31,22,18.086383333333334,0,,a,1,,,4,231
filler_31,23,18.086383333333334,0,,closed,1,,,4,216
filler_31,24,18.086383333333334,0,,plastic,1,,,4,239
filler_31,25,18.086383333333334,0,,container.,1,,,4,230
filler_19,0,18.086383333333334,0,,I,1,,,5,251
filler_19,1,18.086383333333334,0,,love,1,,,5,243
filler_19,2,18.086383333333334,0,,to,1,,,5,211
filler_19,3,18.086383333333334,0,,listen,1,,,5,218
filler_19,4,18.086383333333334,0,,to,1,,,5,238
filler_19,5,18.086383333333334,0,,music.,1,,,5,190
filler_19,6,18.086383333333334,0,,I,1,,,5,214
filler_19,7,18.086383333333334,0,,could,1,,,5,235
filler_19,8,18.086383333333334,0,,spend,1,,,5,189
filler_19,9,18.086383333333334,0,,hours,1,,,5,213
filler_19,10,18.086383333333334,0,,just,1,,,5,221
filler_19,11,18.086383333333334,0,,listening,1,,,5,228
filler_19,12,18.086383333333334,0,,to,1,,,5,213
filler_19,13,18.086383333333334,0,,Pink,1,,,5,221
filler_19,14,18.086383333333334,0,,Floyd.,1,,,5,208
filler_19,15,18.086383333333334,0,,The,1,,,5,470
filler_19,16,18.086383333333334,0,,radio,1,,,5,312
filler_19,17,18.086383333333334,0,,doesn't,1,,,5,283
filler_19,18,18.086383333333334,0,,play,1,,,5,210
filler_19,19,18.086383333333334,0,,music,1,,,5,223
filler_19,20,18.086383333333334,0,,I,1,,,5,196
filler_19,21,18.086383333333334,0,,"like,",1,,,5,233
filler_19,22,18.086383333333334,0,,so,1,,,5,213
filler_19,23,18.086383333333334,0,,I,1,,,5,236
filler_19,24,18.086383333333334,0,,listen,1,,,5,206
filler_19,25,18.086383333333334,0,,to,1,,,5,230
filler_19,26,18.086383333333334,0,,my,1,,,5,208
filler_19,27,18.086383333333334,0,,iPod.,1,,,5,219
filler_33,0,18.086383333333334,0,,My,1,,,6,235
filler_33,1,18.086383333333334,0,,favorite,1,,,6,218
filler_33,2,18.086383333333334,0,,fruit,1,,,6,226
filler_33,3,18.086383333333334,0,,used,1,,,6,223
filler_33,4,18.086383333333334,0,,to,1,,,6,208
filler_33,5,18.086383333333334,0,,be,1,,,6,236
filler_33,6,18.086383333333334,0,,raspberries.,1,,,6,203
filler_33,7,18.086383333333334,0,,When,1,,,6,219
filler_33,8,18.086383333333334,0,,I,1,,,6,220
filler_33,9,18.086383333333334,0,,was,1,,,6,214
filler_33,10,18.086383333333334,0,,"younger,",1,,,6,203
filler_33,11,18.086383333333334,0,,I,1,,,6,206
filler_33,12,18.086383333333334,0,,saw,1,,,6,215
filler_33,13,18.086383333333334,0,,a,1,,,6,209
filler_33,14,18.086383333333334,0,,bug,1,,,6,206
filler_33,15,18.086383333333334,0,,in,1,,,6,213
filler_33,16,18.086383333333334,0,,one,1,,,6,208
filler_33,17,18.086383333333334,0,,of,1,,,6,229
filler_33,18,18.086383333333334,0,,my,1,,,6,200
filler_33,19,18.086383333333334,0,,"raspberries,",1,,,6,196
filler_33,20,18.086383333333334,0,,and,1,,,6,224
filler_33,21,18.086383333333334,0,,I,1,,,6,223
filler_33,22,18.086383333333334,0,,haven't,1,,,6,208
filler_33,23,18.086383333333334,0,,eaten,1,,,6,216
filler_33,24,18.086383333333334,0,,one,1,,,6,204
filler_33,25,18.086383333333334,0,,since.,1,,,6,198
filler_48,0,18.086383333333334,0,,When,1,,,7,188
filler_48,1,18.086383333333334,0,,I,1,,,7,232
filler_48,2,18.086383333333334,0,,was,1,,,7,220
filler_48,3,18.086383333333334,0,,driving,1,,,7,211
filler_48,4,18.086383333333334,0,,to,1,,,7,206
filler_48,5,18.086383333333334,0,,"work,",1,,,7,223
filler_48,6,18.086383333333334,0,,my,1,,,7,201
filler_48,7,18.086383333333334,0,,favorite,1,,,7,201
filler_48,8,18.086383333333334,0,,song,1,,,7,233
filler_48,9,18.086383333333334,0,,came,1,,,7,231
filler_48,10,18.086383333333334,0,,on,1,,,7,250
filler_48,11,18.086383333333334,0,,the,1,,,7,173
filler_48,12,18.086383333333334,0,,radio.,1,,,7,199
filler_48,13,18.086383333333334,0,,I,1,,,7,201
filler_48,14,18.086383333333334,0,,started,1,,,7,208
filler_48,15,18.086383333333334,0,,to,1,,,7,233
filler_48,16,18.086383333333334,0,,sing,1,,,7,216
filler_48,17,18.086383333333334,0,,along,1,,,7,231
filler_48,18,18.086383333333334,0,,really,1,,,7,206
filler_48,19,18.086383333333334,0,,loudly.,1,,,7,208
filler_48,20,18.086383333333334,0,,"Afterwards,",1,,,7,213
filler_48,21,18.086383333333334,0,,I,1,,,7,219
filler_48,22,18.086383333333334,0,,realized,1,,,7,213
filler_48,23,18.086383333333334,0,,that,1,,,7,224
filler_48,24,18.086383333333334,0,,my,1,,,7,205
filler_48,25,18.086383333333334,0,,windows,1,,,7,207
filler_48,26,18.086383333333334,0,,had,1,,,7,211
filler_48,27,18.086383333333334,0,,been,1,,,7,218
filler_48,28,18.086383333333334,0,,open,1,,,7,214
filler_48,29,18.086383333333334,0,,and,1,,,7,266
filler_48,30,18.086383333333334,0,,other,1,,,7,289
filler_48,31,18.086383333333334,0,,drivers,1,,,7,291
filler_48,32,18.086383333333334,0,,had,1,,,7,253
filler_48,33,18.086383333333334,0,,been,1,,,7,264
filler_48,34,18.086383333333334,0,,staring,1,,,7,248
filler_48,35,18.086383333333334,0,,at,1,,,7,301
filler_48,36,18.086383333333334,0,,me.,1,,,7,266
filler_26,0,18.086383333333334,0,,This,1,,,8,226
filler_26,1,18.086383333333334,0,,summer,1,,,8,223
filler_26,2,18.086383333333334,0,,I,1,,,8,238
filler_26,3,18.086383333333334,0,,will,1,,,8,204
filler_26,4,18.086383333333334,0,,not,1,,,8,205
filler_26,5,18.086383333333334,0,,have,1,,,8,196
filler_26,6,18.086383333333334,0,,air,1,,,8,227
filler_26,7,18.086383333333334,0,,conditioning,1,,,8,218
filler_26,8,18.086383333333334,0,,in,1,,,8,215
filler_26,9,18.086383333333334,0,,my,1,,,8,208
filler_26,10,18.086383333333334,0,,house.,1,,,8,206
filler_26,11,18.086383333333334,0,,I,1,,,8,208
filler_26,12,18.086383333333334,0,,prefer,1,,,8,214
filler_26,13,18.086383333333334,0,,the,1,,,8,208
filler_26,14,18.086383333333334,0,,weather,1,,,8,208
filler_26,15,18.086383333333334,0,,in,1,,,8,213
filler_26,16,18.086383333333334,0,,"Massachusetts,",1,,,8,224
filler_26,17,18.086383333333334,0,,where,1,,,8,220
filler_26,18,18.086383333333334,0,,it,1,,,8,233
filler_26,19,18.086383333333334,0,,is,1,,,8,211
filler_26,20,18.086383333333334,0,,colder.,1,,,8,203
filler_26,21,18.086383333333334,0,,New,1,,,8,215
filler_26,22,18.086383333333334,0,,England,1,,,8,229
filler_26,23,18.086383333333334,0,,weather,1,,,8,215
filler_26,24,18.086383333333334,0,,is,1,,,8,235
filler_26,25,18.086383333333334,0,,always,1,,,8,208
filler_26,26,18.086383333333334,0,,colder,1,,,8,226
filler_26,27,18.086383333333334,0,,in,1,,,8,198
filler_26,28,18.086383333333334,0,,the,1,,,8,268
filler_26,29,18.086383333333334,0,,summer.,1,,,8,417
filler_17,0,18.086383333333334,0,,I,1,,,9,275
filler_17,1,18.086383333333334,0,,got,1,,,9,234
filler_17,2,18.086383333333334,0,,sick,1,,,9,238
filler_17,3,18.086383333333334,0,,with,1,,,9,209
filler_17,4,18.086383333333334,0,,a,1,,,9,213
filler_17,5,18.086383333333334,0,,cold,1,,,9,213
filler_17,6,18.086383333333334,0,,over,1,,,9,216
filler_17,7,18.086383333333334,0,,the,1,,,9,220
filler_17,8,18.086383333333334,0,,weekend.,1,,,9,208
filler_17,9,18.086383333333334,0,,I,1,,,9,209
filler_17,10,18.086383333333334,0,,am,1,,,9,218
filler_17,11,18.086383333333334,0,,still,1,,,9,206
filler_17,12,18.086383333333334,0,,taking,1,,,9,211
filler_17,13,18.086383333333334,0,,decongestants.,1,,,9,215
hotel_lw,0,18.086383333333334,0,,When,1,,,10,213
hotel_lw,1,18.086383333333334,0,,they,1,,,10,233
hotel_lw,2,18.086383333333334,0,,"returned,",1,,,10,204
hotel_lw,3,18.086383333333334,0,,my,1,,,10,206
hotel_lw,4,18.086383333333334,0,,family,1,,,10,210
hotel_lw,5,18.086383333333334,0,,told,1,,,10,209
hotel_lw,6,18.086383333333334,0,,me,1,,,10,215
hotel_lw,7,18.086383333333334,0,,about,1,,,10,203
hotel_lw,8,18.086383333333334,0,,their,1,,,10,191
hotel_lw,9,18.086383333333334,0,,trip,1,,,10,221
hotel_lw,10,18.086383333333334,0,,to,1,,,10,213
hotel_lw,11,18.086383333333334,0,,Europe.,1,,,10,204
hotel_lw,12,18.086383333333334,0,,Only,1,,,10,193
hotel_lw,13,18.086383333333334,0,,some,1,,,10,209
hotel_lw,14,18.086383333333334,0,,of,1,,,10,218
hotel_lw,15,18.086383333333334,0,,their,1,,,10,216
hotel_lw,16,18.086383333333334,0,,hotels,1,,,10,218
hotel_lw,17,18.086383333333334,0,,were,1,,,10,221
hotel_lw,18,18.086383333333334,0,,expensive.,1,,,10,213
hotel_lw,19,18.086383333333334,0,,The,1,,,10,234
hotel_lw,20,18.086383333333334,0,,rest,1,,,10,220
hotel_lw,21,18.086383333333334,0,,were,1,,,10,216
hotel_lw,22,18.086383333333334,0,,cheap,1,,,10,216
hotel_lw,23,18.086383333333334,0,,despite,1,,,10,218
hotel_lw,24,18.086383333333334,0,,my,1,,,10,216
hotel_lw,25,18.086383333333334,0,,family's,1,,,10,208
hotel_lw,26,18.086383333333334,0,,love,1,,,10,226
hotel_lw,27,18.086383333333334,0,,for,1,,,10,219
hotel_lw,28,18.086383333333334,0,,luxurious,1,,,10,362
hotel_lw,29,18.086383333333334,0,,holidays.,1,,,10,326
filler_14,0,18.086383333333334,0,,Because,1,,,11,244
filler_14,1,18.086383333333334,0,,of,1,,,11,233
filler_14,2,18.086383333333334,0,,the,1,,,11,240
filler_14,3,18.086383333333334,0,,nice,1,,,11,417
filler_14,4,18.086383333333334,0,,"weather,",1,,,11,209
filler_14,5,18.086383333333334,0,,I,1,,,11,223
filler_14,6,18.086383333333334,0,,put,1,,,11,231
filler_14,7,18.086383333333334,0,,the,1,,,11,188
filler_14,8,18.086383333333334,0,,top,1,,,11,218
filler_14,9,18.086383333333334,0,,down,1,,,11,203
filler_14,10,18.086383333333334,0,,on,1,,,11,209
filler_14,11,18.086383333333334,0,,my,1,,,11,211
filler_14,12,18.086383333333334,0,,convertible.,1,,,11,203
filler_14,13,18.086383333333334,0,,I,1,,,11,203
filler_14,14,18.086383333333334,0,,was,1,,,11,226
filler_14,15,18.086383333333334,0,,afraid,1,,,11,218
filler_14,16,18.086383333333334,0,,of,1,,,11,209
filler_14,17,18.086383333333334,0,,sunburning,1,,,11,213
filler_14,18,18.086383333333334,0,,my,1,,,11,221
filler_14,19,18.086383333333334,0,,"head,",1,,,11,226
filler_14,20,18.086383333333334,0,,so,1,,,11,210
filler_14,21,18.086383333333334,0,,I,1,,,11,213
filler_14,22,18.086383333333334,0,,wore,1,,,11,214
filler_14,23,18.086383333333334,0,,a,1,,,11,206
filler_14,24,18.086383333333334,0,,hat.,1,,,11,221
vet_cw,0,18.086383333333334,0,,While,1,,,12,244
vet_cw,1,18.086383333333334,0,,working,1,,,12,497
vet_cw,2,18.086383333333334,0,,in,1,,,12,236
vet_cw,3,18.086383333333334,0,,the,1,,,12,223
vet_cw,4,18.086383333333334,0,,veterinary,1,,,12,203
vet_cw,5,18.086383333333334,0,,"clinic,",1,,,12,211
vet_cw,6,18.086383333333334,0,,I,1,,,12,211
vet_cw,7,18.086383333333334,0,,caught,1,,,12,221
vet_cw,8,18.086383333333334,0,,a,1,,,12,209
vet_cw,9,18.086383333333334,0,,glimpse,1,,,12,211
vet_cw,10,18.086383333333334,0,,of,1,,,12,238
vet_cw,11,18.086383333333334,0,,a,1,,,12,224
vet_cw,12,18.086383333333334,0,,large,1,,,12,224
vet_cw,13,18.086383333333334,0,,bulldog.,1,,,12,209
vet_cw,14,18.086383333333334,0,,Some,1,,,12,221
vet_cw,15,18.086383333333334,0,,of,1,,,12,263
vet_cw,16,18.086383333333334,0,,the,1,,,12,236
vet_cw,17,18.086383333333334,0,,dog's,1,,,12,230
vet_cw,18,18.086383333333334,0,,teeth,1,,,12,244
vet_cw,19,18.086383333333334,0,,were,1,,,12,238
vet_cw,20,18.086383333333334,0,,missing.,1,,,12,246
vet_cw,21,18.086383333333334,0,,In,1,,,12,226
vet_cw,22,18.086383333333334,0,,"fact,",1,,,12,248
vet_cw,23,18.086383333333334,0,,they,1,,,12,211
vet_cw,24,18.086383333333334,0,,all,1,,,12,223
vet_cw,25,18.086383333333334,0,,were,1,,,12,208
vet_cw,26,18.086383333333334,0,,because,1,,,12,233
vet_cw,27,18.086383333333334,0,,its,1,,,12,241
vet_cw,28,18.086383333333334,0,,owners,1,,,12,230
vet_cw,29,18.086383333333334,0,,completely,1,,,12,229
vet_cw,30,18.086383333333334,0,,neglected,1,,,12,243
vet_cw,31,18.086383333333334,0,,its,1,,,12,236
vet_cw,32,18.086383333333334,0,,oral,1,,,12,258
vet_cw,33,18.086383333333334,0,,hygiene.,1,,,12,355
filler_32,0,18.086383333333334,0,,Last,1,,,13,236
filler_32,1,18.086383333333334,0,,summer,1,,,13,208
filler_32,2,18.086383333333334,0,,I,1,,,13,223
filler_32,3,18.086383333333334,0,,went,1,,,13,219
filler_32,4,18.086383333333334,0,,to,1,,,13,210
filler_32,5,18.086383333333334,0,,Chicago,1,,,13,204
filler_32,6,18.086383333333334,0,,on,1,,,13,206
filler_32,7,18.086383333333334,0,,vacation.,1,,,13,201
filler_32,8,18.086383333333334,0,,When,1,,,13,211
filler_32,9,18.086383333333334,0,,I,1,,,13,216
filler_32,10,18.086383333333334,0,,was,1,,,13,213
filler_32,11,18.086383333333334,0,,"there,",1,,,13,211
filler_32,12,18.086383333333334,0,,I,1,,,13,203
filler_32,13,18.086383333333334,0,,visited,1,,,13,193
filler_32,14,18.086383333333334,0,,the,1,,,13,214
filler_32,15,18.086383333333334,0,,Art,1,,,13,204
filler_32,16,18.086383333333334,0,,Institute,1,,,13,228
filler_32,17,18.086383333333334,0,,and,1,,,13,249
filler_32,18,18.086383333333334,0,,saw,1,,,13,494
filler_32,19,18.086383333333334,0,,a,1,,,13,228
filler_32,20,18.086383333333334,0,,painting,1,,,13,203
filler_32,21,18.086383333333334,0,,by,1,,,13,216
filler_32,22,18.086383333333334,0,,Georges,1,,,13,211
filler_32,23,18.086383333333334,0,,Seurat.,1,,,13,216
filler_32,24,18.086383333333334,0,,It,1,,,13,221
filler_32,25,18.086383333333334,0,,was,1,,,13,221
filler_32,26,18.086383333333334,0,,much,1,,,13,209
filler_32,27,18.086383333333334,0,,bigger,1,,,13,228
filler_32,28,18.086383333333334,0,,than,1,,,13,206
filler_32,29,18.086383333333334,0,,I,1,,,13,234
filler_32,30,18.086383333333334,0,,thought,1,,,13,208
filler_32,31,18.086383333333334,0,,it,1,,,13,339
filler_32,32,18.086383333333334,0,,would,1,,,13,235
filler_32,33,18.086383333333334,0,,be.,1,,,13,358
filler_47,0,18.086383333333334,0,,I,0,,,14,241
filler_47,1,18.086383333333334,0,,planted,0,,,14,206
filler_47,2,18.086383333333334,0,,tomato,0,,,14,236
filler_47,3,18.086383333333334,0,,plants,0,,,14,231
filler_47,4,18.086383333333334,0,,in,0,,,14,216
filler_47,5,18.086383333333334,0,,my,0,,,14,224
filler_47,6,18.086383333333334,0,,backyard.,0,,,14,210
filler_47,7,18.086383333333334,0,,By,0,,,14,199
filler_47,8,18.086383333333334,0,,the,0,,,14,220
filler_47,9,18.086383333333334,0,,time,0,,,14,191
filler_47,10,18.086383333333334,0,,the,0,,,14,218
filler_47,11,18.086383333333334,0,,tomatoes,0,,,14,194
filler_47,12,18.086383333333334,0,,became,0,,,14,218
filler_47,13,18.086383333333334,0,,"ripe,",0,,,14,208
filler_47,14,18.086383333333334,0,,wild,0,,,14,199
filler_47,15,18.086383333333334,0,,animals,0,,,14,223
filler_47,16,18.086383333333334,0,,had,0,,,14,216
filler_47,17,18.086383333333334,0,,already,0,,,14,217
filler_47,18,18.086383333333334,0,,eaten,0,,,14,231
filler_47,19,18.086383333333334,0,,most,0,,,14,226
filler_47,20,18.086383333333334,0,,of,0,,,14,225
filler_47,21,18.086383333333334,0,,them.,0,,,14,1126
attendance_as,0,18.086383333333334,0,,This,1,,,15,266
attendance_as,1,18.086383333333334,0,,"morning,",1,,,15,218
attendance_as,2,18.086383333333334,0,,I,1,,,15,218
attendance_as,3,18.086383333333334,0,,took,1,,,15,215
attendance_as,4,18.086383333333334,0,,attendance,1,,,15,209
attendance_as,5,18.086383333333334,0,,at,1,,,15,230
attendance_as,6,18.086383333333334,0,,an,1,,,15,223
attendance_as,7,18.086383333333334,0,,important,1,,,15,203
attendance_as,8,18.086383333333334,0,,meeting,1,,,15,216
attendance_as,9,18.086383333333334,0,,with,1,,,15,210
attendance_as,10,18.086383333333334,0,,the,1,,,15,211
attendance_as,11,18.086383333333334,0,,manager.,1,,,15,211
attendance_as,12,18.086383333333334,0,,Some,1,,,15,210
attendance_as,13,18.086383333333334,0,,of,1,,,15,208
attendance_as,14,18.086383333333334,0,,the,1,,,15,226
attendance_as,15,18.086383333333334,0,,company's,1,,,15,213
attendance_as,16,18.086383333333334,0,,accountants,1,,,15,225
attendance_as,17,18.086383333333334,0,,were,1,,,15,216
attendance_as,18,18.086383333333334,0,,there.,1,,,15,230
attendance_as,19,18.086383333333334,0,,The,1,,,15,215
attendance_as,20,18.086383333333334,0,,rest,1,,,15,221
attendance_as,21,18.086383333333334,0,,were,1,,,15,208
attendance_as,22,18.086383333333334,0,,missing,1,,,15,229
attendance_as,23,18.086383333333334,0,,because,1,,,15,243
attendance_as,24,18.086383333333334,0,,they,1,,,15,290
attendance_as,25,18.086383333333334,0,,had,1,,,15,425
attendance_as,26,18.086383333333334,0,,to,1,,,15,637
attendance_as,27,18.086383333333334,0,,audit,1,,,15,231
attendance_as,28,18.086383333333334,0,,the,1,,,15,213
attendance_as,29,18.086383333333334,0,,company's,1,,,15,231
attendance_as,30,18.086383333333334,0,,finances,1,,,15,215
attendance_as,31,18.086383333333334,0,,before,1,,,15,226
attendance_as,32,18.086383333333334,0,,the,1,,,15,238
attendance_as,33,18.086383333333334,0,,end,1,,,15,221
attendance_as,34,18.086383333333334,0,,of,1,,,15,211
attendance_as,35,18.086383333333334,0,,the,1,,,15,190
attendance_as,36,18.086383333333334,0,,quarter.,1,,,15,303
football_aw,0,18.086383333333334,0,,I,1,,,16,253
football_aw,1,18.086383333333334,0,,ran,1,,,16,231
football_aw,2,18.086383333333334,0,,into,1,,,16,213
football_aw,3,18.086383333333334,0,,a,1,,,16,228
football_aw,4,18.086383333333334,0,,friend,1,,,16,208
football_aw,5,18.086383333333334,0,,who,1,,,16,208
football_aw,6,18.086383333333334,0,,started,1,,,16,203
football_aw,7,18.086383333333334,0,,telling,1,,,16,201
football_aw,8,18.086383333333334,0,,how,1,,,16,208
football_aw,9,18.086383333333334,0,,my,1,,,16,190
football_aw,10,18.086383333333334,0,,old,1,,,16,214
football_aw,11,18.086383333333334,0,,high_school,1,,,16,228
football_aw,12,18.086383333333334,0,,football,1,,,16,208
football_aw,13,18.086383333333334,0,,team,1,,,16,228
football_aw,14,18.086383333333334,0,,did,1,,,16,208
football_aw,15,18.086383333333334,0,,last,1,,,16,241
football_aw,16,18.086383333333334,0,,season.,1,,,16,228
football_aw,17,18.086383333333334,0,,Some,1,,,16,278
football_aw,18,18.086383333333334,0,,of,1,,,16,215
football_aw,19,18.086383333333334,0,,their,1,,,16,223
football_aw,20,18.086383333333334,0,,losses,1,,,16,209
football_aw,21,18.086383333333334,0,,were,1,,,16,235
football_aw,22,18.086383333333334,0,,close.,1,,,16,211
football_aw,23,18.086383333333334,0,,The,1,,,16,213
football_aw,24,18.086383333333334,0,,others,1,,,16,221
football_aw,25,18.086383333333334,0,,were,1,,,16,206
football_aw,26,18.086383333333334,0,,blowouts,1,,,16,218
football_aw,27,18.086383333333334,0,,which,1,,,16,213
football_aw,28,18.086383333333334,0,,made,1,,,16,246
football_aw,29,18.086383333333334,0,,the,1,,,16,266
football_aw,30,18.086383333333334,0,,games,1,,,16,242
football_aw,31,18.086383333333334,0,,boring,1,,,16,213
football_aw,32,18.086383333333334,0,,to,1,,,16,291
football_aw,33,18.086383333333334,0,,watch.,1,,,16,214
disney_cw,0,18.086383333333334,0,,When,1,,,17,252
disney_cw,1,18.086383333333334,0,,I,1,,,17,256
disney_cw,2,18.086383333333334,0,,visited,1,,,17,243
disney_cw,3,18.086383333333334,0,,Disney,1,,,17,1003
disney_cw,4,18.086383333333334,0,,"World,",1,,,17,286
disney_cw,5,18.086383333333334,0,,I,1,,,17,238
disney_cw,6,18.086383333333334,0,,quickly,1,,,17,200
disney_cw,7,18.086383333333334,0,,walked,1,,,17,246
disney_cw,8,18.086383333333334,0,,around,1,,,17,213
disney_cw,9,18.086383333333334,0,,the,1,,,17,234
disney_cw,10,18.086383333333334,0,,amusement,1,,,17,210
disney_cw,11,18.086383333333334,0,,park.,1,,,17,234
disney_cw,12,18.086383333333334,0,,Some,1,,,17,223
disney_cw,13,18.086383333333334,0,,of,1,,,17,235
disney_cw,14,18.086383333333334,0,,my,1,,,17,226
disney_cw,15,18.086383333333334,0,,favorite,1,,,17,234
disney_cw,16,18.086383333333334,0,,rides,1,,,17,200
disney_cw,17,18.086383333333334,0,,were,1,,,17,231
disney_cw,18,18.086383333333334,0,,still,1,,,17,228
disney_cw,19,18.086383333333334,0,,running.,1,,,17,221
disney_cw,20,18.086383333333334,0,,In,1,,,17,211
disney_cw,21,18.086383333333334,0,,"fact,",1,,,17,228
disney_cw,22,18.086383333333334,0,,they,1,,,17,224
disney_cw,23,18.086383333333334,0,,all,1,,,17,203
disney_cw,24,18.086383333333334,0,,were,1,,,17,253
disney_cw,25,18.086383333333334,0,,since,1,,,17,211
disney_cw,26,18.086383333333334,0,,they,1,,,17,231
disney_cw,27,18.086383333333334,0,,were,1,,,17,231
disney_cw,28,18.086383333333334,0,,still,1,,,17,228
disney_cw,29,18.086383333333334,0,,popular.,1,,,17,395
research_aw,0,18.086383333333334,0,,To,1,,,18,226
research_aw,1,18.086383333333334,0,,check,1,,,18,211
research_aw,2,18.086383333333334,0,,on,1,,,18,216
research_aw,3,18.086383333333334,0,,the,1,,,18,235
research_aw,4,18.086383333333334,0,,progress,1,,,18,200
research_aw,5,18.086383333333334,0,,of,1,,,18,213
research_aw,6,18.086383333333334,0,,my,1,,,18,268
research_aw,7,18.086383333333334,0,,"research,",1,,,18,206
research_aw,8,18.086383333333334,0,,I,1,,,18,215
research_aw,9,18.086383333333334,0,,quickly,1,,,18,221
research_aw,10,18.086383333333334,0,,scanned,1,,,18,206
research_aw,11,18.086383333333334,0,,the,1,,,18,200
research_aw,12,18.086383333333334,0,,experiments,1,,,18,208
research_aw,13,18.086383333333334,0,,in,1,,,18,239
research_aw,14,18.086383333333334,0,,the,1,,,18,210
research_aw,15,18.086383333333334,0,,lab.,1,,,18,228
research_aw,16,18.086383333333334,0,,Some,1,,,18,224
research_aw,17,18.086383333333334,0,,of,1,,,18,226
research_aw,18,18.086383333333334,0,,my,1,,,18,214
research_aw,19,18.086383333333334,0,,predictions,1,,,18,205
research_aw,20,18.086383333333334,0,,were,1,,,18,221
research_aw,21,18.086383333333334,0,,correct.,1,,,18,208
research_aw,22,18.086383333333334,0,,The,1,,,18,226
research_aw,23,18.086383333333334,0,,rest,1,,,18,213
research_aw,24,18.086383333333334,0,,were,1,,,18,226
research_aw,25,18.086383333333334,0,,wrong,1,,,18,221
research_aw,26,18.086383333333334,0,,so,1,,,18,206
research_aw,27,18.086383333333334,0,,my,1,,,18,228
research_aw,28,18.086383333333334,0,,theory,1,,,18,201
research_aw,29,18.086383333333334,0,,must,1,,,18,221
research_aw,30,18.086383333333334,0,,be,1,,,18,439
research_aw,31,18.086383333333334,0,,mistaken.,1,,,18,243
liquor_cs,0,18.086383333333334,0,,After,1,,,19,233
liquor_cs,1,18.086383333333334,0,,the,1,,,19,276
liquor_cs,2,18.086383333333334,0,,babysitter,1,,,19,244
liquor_cs,3,18.086383333333334,0,,"left,",1,,,19,236
liquor_cs,4,18.086383333333334,0,,I,1,,,19,246
liquor_cs,5,18.086383333333334,0,,carefully,1,,,19,229
liquor_cs,6,18.086383333333334,0,,examined,1,,,19,216
liquor_cs,7,18.086383333333334,0,,my,1,,,19,221
liquor_cs,8,18.086383333333334,0,,liquor,1,,,19,216
liquor_cs,9,18.086383333333334,0,,collection.,1,,,19,209
liquor_cs,10,18.086383333333334,0,,Some,1,,,19,251
liquor_cs,11,18.086383333333334,0,,of,1,,,19,448
liquor_cs,12,18.086383333333334,0,,my,1,,,19,245
liquor_cs,13,18.086383333333334,0,,new,1,,,19,257
liquor_cs,14,18.086383333333334,0,,bottles,1,,,19,268
liquor_cs,15,18.086383333333334,0,,of,1,,,19,256
liquor_cs,16,18.086383333333334,0,,peach,1,,,19,249
liquor_cs,17,18.086383333333334,0,,schnapps,1,,,19,242
liquor_cs,18,18.086383333333334,0,,were,1,,,19,251
liquor_cs,19,18.086383333333334,0,,opened.,1,,,19,251
liquor_cs,20,18.086383333333334,0,,In,1,,,19,246
liquor_cs,21,18.086383333333334,0,,"fact,",1,,,19,269
liquor_cs,22,18.086383333333334,0,,they,1,,,19,236
liquor_cs,23,18.086383333333334,0,,all,1,,,19,261
liquor_cs,24,18.086383333333334,0,,were,1,,,19,188
liquor_cs,25,18.086383333333334,0,,but,1,,,19,198
liquor_cs,26,18.086383333333334,0,,I,1,,,19,226
liquor_cs,27,18.086383333333334,0,,decided,1,,,19,236
liquor_cs,28,18.086383333333334,0,,not,1,,,19,248
liquor_cs,29,18.086383333333334,0,,to,1,,,19,218
liquor_cs,30,18.086383333333334,0,,call,1,,,19,221
liquor_cs,31,18.086383333333334,0,,her,1,,,19,236
liquor_cs,32,18.086383333333334,0,,parents,1,,,19,216
liquor_cs,33,18.086383333333334,0,,because,1,,,19,254
liquor_cs,34,18.086383333333334,0,,it,1,,,19,228
liquor_cs,35,18.086383333333334,0,,was,1,,,19,234
liquor_cs,36,18.086383333333334,0,,so,1,,,19,215
liquor_cs,37,18.086383333333334,0,,hard,1,,,19,223
liquor_cs,38,18.086383333333334,0,,to,1,,,19,221
liquor_cs,39,18.086383333333334,0,,find,1,,,19,228
liquor_cs,40,18.086383333333334,0,,a,1,,,19,223
liquor_cs,41,18.086383333333334,0,,babysitter.,1,,,19,353
filler_7,0,18.086383333333334,0,,After,1,,,20,251
filler_7,1,18.086383333333334,0,,"dinner,",1,,,20,271
filler_7,2,18.086383333333334,0,,I,1,,,20,274
filler_7,3,18.086383333333334,0,,listen,1,,,20,255
filler_7,4,18.086383333333334,0,,to,1,,,20,220
filler_7,5,18.086383333333334,0,,Celtic,1,,,20,231
filler_7,6,18.086383333333334,0,,music,1,,,20,215
filler_7,7,18.086383333333334,0,,and,1,,,20,223
filler_7,8,18.086383333333334,0,,read,1,,,20,236
filler_7,9,18.086383333333334,0,,a,1,,,20,230
filler_7,10,18.086383333333334,0,,book.,1,,,20,193
filler_7,11,18.086383333333334,0,,Today,1,,,20,205
filler_7,12,18.086383333333334,0,,I,1,,,20,241
filler_7,13,18.086383333333334,0,,listened,1,,,20,256
filler_7,14,18.086383333333334,0,,to,1,,,20,235
filler_7,15,18.086383333333334,0,,classic,1,,,20,241
filler_7,16,18.086383333333334,0,,rock,1,,,20,240
filler_7,17,18.086383333333334,0,,instead,1,,,20,231
filler_7,18,18.086383333333334,0,,of,1,,,20,216
filler_7,19,18.086383333333334,0,,Celtic,1,,,20,213
filler_7,20,18.086383333333334,0,,music.,1,,,20,220
filler_8,0,18.086383333333334,0,,I,1,,,21,208
filler_8,1,18.086383333333334,0,,wear,1,,,21,216
filler_8,2,18.086383333333334,0,,my,1,,,21,206
filler_8,3,18.086383333333334,0,,favorite,1,,,21,223
filler_8,4,18.086383333333334,0,,shirt,1,,,21,215
filler_8,5,18.086383333333334,0,,every,1,,,21,189
filler_8,6,18.086383333333334,0,,week.,1,,,21,223
filler_8,7,18.086383333333334,0,,I,1,,,21,206
filler_8,8,18.086383333333334,0,,make,1,,,21,223
filler_8,9,18.086383333333334,0,,sure,1,,,21,208
filler_8,10,18.086383333333334,0,,to,1,,,21,226
filler_8,11,18.086383333333334,0,,wash,1,,,21,190
filler_8,12,18.086383333333334,0,,some,1,,,21,209
filler_8,13,18.086383333333334,0,,of,1,,,21,213
filler_8,14,18.086383333333334,0,,my,1,,,21,208
filler_8,15,18.086383333333334,0,,clothes,1,,,21,204
filler_8,16,18.086383333333334,0,,each,1,,,21,211
filler_8,17,18.086383333333334,0,,week.,1,,,21,230
filler_8,18,18.086383333333334,0,,,1,,,21,206
filler_8,19,18.086383333333334,0,,I,1,,,21,211
filler_8,20,18.086383333333334,0,,always,1,,,21,226
filler_8,21,18.086383333333334,0,,wash,1,,,21,230
filler_8,22,18.086383333333334,0,,my,1,,,21,209
filler_8,23,18.086383333333334,0,,shirts,1,,,21,218
filler_8,24,18.086383333333334,0,,before,1,,,21,221
filler_8,25,18.086383333333334,0,,I,1,,,21,203
filler_8,26,18.086383333333334,0,,wear,1,,,21,210
filler_8,27,18.086383333333334,0,,them,1,,,21,203
filler_8,28,18.086383333333334,0,,again.,1,,,21,216
invest_as,0,18.086383333333334,0,,At,1,,,22,251
invest_as,1,18.086383333333334,0,,my,1,,,22,210
invest_as,2,18.086383333333334,0,,client's,1,,,22,213
invest_as,3,18.086383333333334,0,,"request,",1,,,22,256
invest_as,4,18.086383333333334,0,,I,1,,,22,263
invest_as,5,18.086383333333334,0,,meticulously,1,,,22,208
invest_as,6,18.086383333333334,0,,compiled,1,,,22,202
invest_as,7,18.086383333333334,0,,the,1,,,22,236
invest_as,8,18.086383333333334,0,,investment,1,,,22,213
invest_as,9,18.086383333333334,0,,report.,1,,,22,225
invest_as,10,18.086383333333334,0,,Some,1,,,22,213
invest_as,11,18.086383333333334,0,,of,1,,,22,246
invest_as,12,18.086383333333334,0,,the,1,,,22,258
invest_as,13,18.086383333333334,0,,real-estate,1,,,22,220
invest_as,14,18.086383333333334,0,,investments,1,,,22,216
invest_as,15,18.086383333333334,0,,lost,1,,,22,201
invest_as,16,18.086383333333334,0,,money.,1,,,22,208
invest_as,17,18.086383333333334,0,,The,1,,,22,220
invest_as,18,18.086383333333334,0,,others,1,,,22,220
invest_as,19,18.086383333333334,0,,were,1,,,22,209
invest_as,20,18.086383333333334,0,,successful,1,,,22,239
invest_as,21,18.086383333333334,0,,in,1,,,22,231
invest_as,22,18.086383333333334,0,,spite,1,,,22,243
invest_as,23,18.086383333333334,0,,of,1,,,22,248
invest_as,24,18.086383333333334,0,,the,1,,,22,244
invest_as,25,18.086383333333334,0,,recent,1,,,22,236
invest_as,26,18.086383333333334,0,,economic,1,,,22,202
invest_as,27,18.086383333333334,0,,downturn.,1,,,22,226
filler_16,0,18.086383333333334,0,,I,1,,,23,243
filler_16,1,18.086383333333334,0,,enjoy,1,,,23,231
filler_16,2,18.086383333333334,0,,driving,1,,,23,176
filler_16,3,18.086383333333334,0,,my,1,,,23,248
filler_16,4,18.086383333333334,0,,car,1,,,23,223
filler_16,5,18.086383333333334,0,,when,1,,,23,246
filler_16,6,18.086383333333334,0,,I,1,,,23,210
filler_16,7,18.086383333333334,0,,am,1,,,23,205
filler_16,8,18.086383333333334,0,,home,1,,,23,211
filler_16,9,18.086383333333334,0,,from,1,,,23,233
filler_16,10,18.086383333333334,0,,school.,1,,,23,211
filler_16,11,18.086383333333334,0,,Motorcycles,1,,,23,220
filler_16,12,18.086383333333334,0,,use,1,,,23,236
filler_16,13,18.086383333333334,0,,less,1,,,23,213
filler_16,14,18.086383333333334,0,,"fuel,",1,,,23,213
filler_16,15,18.086383333333334,0,,but,1,,,23,228
filler_16,16,18.086383333333334,0,,they,1,,,23,295
filler_16,17,18.086383333333334,0,,are,1,,,23,333
filler_16,18,18.086383333333334,0,,more,1,,,23,283
filler_16,19,18.086383333333334,0,,dangerous.,1,,,23,271
filler_6,0,18.086383333333334,0,,When,1,,,24,228
filler_6,1,18.086383333333334,0,,I,1,,,24,228
filler_6,2,18.086383333333334,0,,arrived,1,,,24,233
filler_6,3,18.086383333333334,0,,in,1,,,24,211
filler_6,4,18.086383333333334,0,,the,1,,,24,226
filler_6,5,18.086383333333334,0,,parking,1,,,24,210
filler_6,6,18.086383333333334,0,,lot,1,,,24,221
filler_6,7,18.086383333333334,0,,today,1,,,24,210
filler_6,8,18.086383333333334,0,,I,1,,,24,198
filler_6,9,18.086383333333334,0,,saw,1,,,24,211
filler_6,10,18.086383333333334,0,,an,1,,,24,198
filler_6,11,18.086383333333334,0,,expensive,1,,,24,220
filler_6,12,18.086383333333334,0,,red,1,,,24,221
filler_6,13,18.086383333333334,0,,Ferrari.,1,,,24,211
filler_6,14,18.086383333333334,0,,When,1,,,24,210
filler_6,15,18.086383333333334,0,,I,1,,,24,228
filler_6,16,18.086383333333334,0,,left,1,,,24,201
filler_6,17,18.086383333333334,0,,for,1,,,24,205
filler_6,18,18.086383333333334,0,,lunch,1,,,24,214
filler_6,19,18.086383333333334,0,,it,1,,,24,195
filler_6,20,18.086383333333334,0,,was,1,,,24,179
filler_6,21,18.086383333333334,0,,gone.,1,,,24,253
portfolio_lw,0,18.086383333333334,0,,While,1,,,25,229
portfolio_lw,1,18.086383333333334,0,,eating,1,,,25,216
portfolio_lw,2,18.086383333333334,0,,"breakfast,",1,,,25,211
portfolio_lw,3,18.086383333333334,0,,I,1,,,25,200
portfolio_lw,4,18.086383333333334,0,,had,1,,,25,199
portfolio_lw,5,18.086383333333334,0,,little,1,,,25,210
portfolio_lw,6,18.086383333333334,0,,time,1,,,25,209
portfolio_lw,7,18.086383333333334,0,,to,1,,,25,218
portfolio_lw,8,18.086383333333334,0,,skim,1,,,25,221
portfolio_lw,9,18.086383333333334,0,,the,1,,,25,208
portfolio_lw,10,18.086383333333334,0,,stock,1,,,25,198
portfolio_lw,11,18.086383333333334,0,,prices,1,,,25,216
portfolio_lw,12,18.086383333333334,0,,from,1,,,25,205
portfolio_lw,13,18.086383333333334,0,,yesterday.,1,,,25,226
portfolio_lw,14,18.086383333333334,0,,Only,1,,,25,268
portfolio_lw,15,18.086383333333334,0,,some,1,,,25,226
portfolio_lw,16,18.086383333333334,0,,of,1,,,25,425
portfolio_lw,17,18.086383333333334,0,,my,1,,,25,213
portfolio_lw,18,18.086383333333334,0,,stocks,1,,,25,223
portfolio_lw,19,18.086383333333334,0,,went,1,,,25,228
portfolio_lw,20,18.086383333333334,0,,up.,1,,,25,211
portfolio_lw,21,18.086383333333334,0,,The,1,,,25,216
portfolio_lw,22,18.086383333333334,0,,others,1,,,25,236
portfolio_lw,23,18.086383333333334,0,,were,1,,,25,211
portfolio_lw,24,18.086383333333334,0,,relatively,1,,,25,248
portfolio_lw,25,18.086383333333334,0,,steady,1,,,25,221
portfolio_lw,26,18.086383333333334,0,,but,1,,,25,243
portfolio_lw,27,18.086383333333334,0,,my,1,,,25,272
portfolio_lw,28,18.086383333333334,0,,portfolio,1,,,25,835
portfolio_lw,29,18.086383333333334,0,,was,1,,,25,234
portfolio_lw,30,18.086383333333334,0,,still,1,,,25,261
portfolio_lw,31,18.086383333333334,0,,down,1,,,25,243
portfolio_lw,32,18.086383333333334,0,,for,1,,,25,228
portfolio_lw,33,18.086383333333334,0,,the,1,,,25,236
portfolio_lw,34,18.086383333333334,0,,year.,1,,,25,344
filler_22,0,18.086383333333334,0,,I,1,,,26,271
filler_22,1,18.086383333333334,0,,can't,1,,,26,258
filler_22,2,18.086383333333334,0,,stand,1,,,26,203
filler_22,3,18.086383333333334,0,,fruit-flavored,1,,,26,234
filler_22,4,18.086383333333334,0,,candy.,1,,,26,225
filler_22,5,18.086383333333334,0,,I,1,,,26,244
filler_22,6,18.086383333333334,0,,make,1,,,26,225
filler_22,7,18.086383333333334,0,,exceptions,1,,,26,214
filler_22,8,18.086383333333334,0,,for,1,,,26,223
filler_22,9,18.086383333333334,0,,lemon,1,,,26,223
filler_22,10,18.086383333333334,0,,lollipops,1,,,26,204
filler_22,11,18.086383333333334,0,,and,1,,,26,254
filler_22,12,18.086383333333334,0,,chewy,1,,,26,248
filler_22,13,18.086383333333334,0,,"candy,",1,,,26,236
filler_22,14,18.086383333333334,0,,though.,1,,,26,266
fraud_ls,0,18.086383333333334,0,,To,1,,,27,253
fraud_ls,1,18.086383333333334,0,,make,1,,,27,229
fraud_ls,2,18.086383333333334,0,,sure,1,,,27,210
fraud_ls,3,18.086383333333334,0,,the,1,,,27,233
fraud_ls,4,18.086383333333334,0,,company,1,,,27,209
fraud_ls,5,18.086383333333334,0,,didn't,1,,,27,214
fraud_ls,6,18.086383333333334,0,,receive,1,,,27,216
fraud_ls,7,18.086383333333334,0,,fraudulent,1,,,27,203
fraud_ls,8,18.086383333333334,0,,"merchandise,",1,,,27,251
fraud_ls,9,18.086383333333334,0,,I,1,,,27,231
fraud_ls,10,18.086383333333334,0,,carefully,1,,,27,298
fraud_ls,11,18.086383333333334,0,,inspected,1,,,27,239
fraud_ls,12,18.086383333333334,0,,the,1,,,27,825
fraud_ls,13,18.086383333333334,0,,new,1,,,27,261
fraud_ls,14,18.086383333333334,0,,shipment,1,,,27,251
fraud_ls,15,18.086383333333334,0,,of,1,,,27,240
fraud_ls,16,18.086383333333334,0,,jewelry.,1,,,27,211
fraud_ls,17,18.086383333333334,0,,Only,1,,,27,249
fraud_ls,18,18.086383333333334,0,,some,1,,,27,233
fraud_ls,19,18.086383333333334,0,,of,1,,,27,231
fraud_ls,20,18.086383333333334,0,,the,1,,,27,239
fraud_ls,21,18.086383333333334,0,,gold,1,,,27,241
fraud_ls,22,18.086383333333334,0,,watches,1,,,27,266
fraud_ls,23,18.086383333333334,0,,were,1,,,27,321
fraud_ls,24,18.086383333333334,0,,fakes.,1,,,27,346
fraud_ls,25,18.086383333333334,0,,The,1,,,27,570
fraud_ls,26,18.086383333333334,0,,rest,1,,,27,345
fraud_ls,27,18.086383333333334,0,,were,1,,,27,241
fraud_ls,28,18.086383333333334,0,,"real,",1,,,27,214
fraud_ls,29,18.086383333333334,0,,but,1,,,27,221
fraud_ls,30,18.086383333333334,0,,the,1,,,27,228
fraud_ls,31,18.086383333333334,0,,company,1,,,27,211
fraud_ls,32,18.086383333333334,0,,is,1,,,27,239
fraud_ls,33,18.086383333333334,0,,still,1,,,27,215
fraud_ls,34,18.086383333333334,0,,planning,1,,,27,214
fraud_ls,35,18.086383333333334,0,,to,1,,,27,390
fraud_ls,36,18.086383333333334,0,,sue.,1,,,27,427
filler_10,0,18.086383333333334,0,,Today,1,,,28,248
filler_10,1,18.086383333333334,0,,the,1,,,28,223
filler_10,2,18.086383333333334,0,,dining,1,,,28,236
filler_10,3,18.086383333333334,0,,hall,1,,,28,241
filler_10,4,18.086383333333334,0,,is,1,,,28,203
filler_10,5,18.086383333333334,0,,serving,1,,,28,222
filler_10,6,18.086383333333334,0,,salmon,1,,,28,211
filler_10,7,18.086383333333334,0,,for,1,,,28,273
filler_10,8,18.086383333333334,0,,dinner.,1,,,28,254
filler_10,9,18.086383333333334,0,,I,1,,,28,248
filler_10,10,18.086383333333334,0,,don't,1,,,28,234
filler_10,11,18.086383333333334,0,,like,1,,,28,218
filler_10,12,18.086383333333334,0,,fish.,1,,,28,241
filler_10,13,18.086383333333334,0,,If,1,,,28,226
filler_10,14,18.086383333333334,0,,I,1,,,28,204
filler_10,15,18.086383333333334,0,,don't,1,,,28,225
filler_10,16,18.086383333333334,0,,like,1,,,28,274
filler_10,17,18.086383333333334,0,,what,1,,,28,253
filler_10,18,18.086383333333334,0,,is,1,,,28,234
filler_10,19,18.086383333333334,0,,being,1,,,28,223
filler_10,20,18.086383333333334,0,,"served,",1,,,28,231
filler_10,21,18.086383333333334,0,,I,1,,,28,216
filler_10,22,18.086383333333334,0,,will,1,,,28,236
filler_10,23,18.086383333333334,0,,eat,1,,,28,233
filler_10,24,18.086383333333334,0,,somewhere,1,,,28,221
filler_10,25,18.086383333333334,0,,else.,1,,,28,371
filler_41,0,18.086383333333334,0,,I,1,,,29,240
filler_41,1,18.086383333333334,0,,got,1,,,29,218
filler_41,2,18.086383333333334,0,,my,1,,,29,211
filler_41,3,18.086383333333334,0,,hair,1,,,29,234
filler_41,4,18.086383333333334,0,,cut,1,,,29,205
filler_41,5,18.086383333333334,0,,at,1,,,29,218
filler_41,6,18.086383333333334,0,,a,1,,,29,214
filler_41,7,18.086383333333334,0,,salon,1,,,29,240
filler_41,8,18.086383333333334,0,,in,1,,,29,213
filler_41,9,18.086383333333334,0,,town.,1,,,29,233
filler_41,10,18.086383333333334,0,,I,1,,,29,226
filler_41,11,18.086383333333334,0,,wanted,1,,,29,229
filler_41,12,18.086383333333334,0,,a,1,,,29,238
filler_41,13,18.086383333333334,0,,"trim,",1,,,29,216
filler_41,14,18.086383333333334,0,,but,1,,,29,220
filler_41,15,18.086383333333334,0,,the,1,,,29,221
filler_41,16,18.086383333333334,0,,stylist,1,,,29,221
filler_41,17,18.086383333333334,0,,cut,1,,,29,228
filler_41,18,18.086383333333334,0,,it,1,,,29,248
filler_41,19,18.086383333333334,0,,too,1,,,29,246
filler_41,20,18.086383333333334,0,,short.,1,,,29,277
filler_41,21,18.086383333333334,0,,Now,1,,,29,231
filler_41,22,18.086383333333334,0,,my,1,,,29,218
filler_41,23,18.086383333333334,0,,hair,1,,,29,218
filler_41,24,18.086383333333334,0,,looks,1,,,29,215
filler_41,25,18.086383333333334,0,,completely,1,,,29,209
filler_41,26,18.086383333333334,0,,different.,1,,,29,221
filler_38,0,18.086383333333334,0,,In,1,,,30,220
filler_38,1,18.086383333333334,0,,the,1,,,30,228
filler_38,2,18.086383333333334,0,,"mornings,",1,,,30,221
filler_38,3,18.086383333333334,0,,I,1,,,30,228
filler_38,4,18.086383333333334,0,,go,1,,,30,231
filler_38,5,18.086383333333334,0,,jogging,1,,,30,229
filler_38,6,18.086383333333334,0,,because,1,,,30,231
filler_38,7,18.086383333333334,0,,that,1,,,30,248
filler_38,8,18.086383333333334,0,,is,1,,,30,224
filler_38,9,18.086383333333334,0,,when,1,,,30,223
filler_38,10,18.086383333333334,0,,I,1,,,30,216
filler_38,11,18.086383333333334,0,,can,1,,,30,220
filler_38,12,18.086383333333334,0,,fit,1,,,30,198
filler_38,13,18.086383333333334,0,,it,1,,,30,224
filler_38,14,18.086383333333334,0,,into,1,,,30,235
filler_38,15,18.086383333333334,0,,my,1,,,30,218
filler_38,16,18.086383333333334,0,,schedule.,1,,,30,218
filler_38,17,18.086383333333334,0,,I,1,,,30,251
filler_38,18,18.086383333333334,0,,like,1,,,30,280
filler_38,19,18.086383333333334,0,,exercising,1,,,30,220
filler_38,20,18.086383333333334,0,,then,1,,,30,263
filler_38,21,18.086383333333334,0,,because,1,,,30,226
filler_38,22,18.086383333333334,0,,the,1,,,30,223
filler_38,23,18.086383333333334,0,,weather,1,,,30,235
filler_38,24,18.086383333333334,0,,is,1,,,30,231
filler_38,25,18.086383333333334,0,,cooler,1,,,30,218
filler_38,26,18.086383333333334,0,,than,1,,,30,226
filler_38,27,18.086383333333334,0,,it,1,,,30,315
filler_38,28,18.086383333333334,0,,is,1,,,30,251
filler_38,29,18.086383333333334,0,,during,1,,,30,244
filler_38,30,18.086383333333334,0,,the,1,,,30,338
filler_38,31,18.086383333333334,0,,afternoon.,1,,,30,411
filler_38,32,18.086383333333334,0,,"Also,",1,,,30,371
filler_38,33,18.086383333333334,0,,the,1,,,30,301
filler_38,34,18.086383333333334,0,,paths,1,,,30,266
filler_38,35,18.086383333333334,0,,are,1,,,30,241
filler_38,36,18.086383333333334,0,,not,1,,,30,254
filler_38,37,18.086383333333334,0,,very,1,,,30,246
filler_38,38,18.086383333333334,0,,crowded.,1,,,30,308
dict_aw,0,18.086383333333334,0,,The,1,,,31,284
dict_aw,1,18.086383333333334,0,,librarian,1,,,31,236
dict_aw,2,18.086383333333334,0,,told,1,,,31,235
dict_aw,3,18.086383333333334,0,,me,1,,,31,236
dict_aw,4,18.086383333333334,0,,about,1,,,31,208
dict_aw,5,18.086383333333334,0,,how,1,,,31,227
dict_aw,6,18.086383333333334,0,,annoying,1,,,31,216
dict_aw,7,18.086383333333334,0,,it,1,,,31,270
dict_aw,8,18.086383333333334,0,,was,1,,,31,188
dict_aw,9,18.086383333333334,0,,to,1,,,31,238
dict_aw,10,18.086383333333334,0,,reorganize,1,,,31,213
dict_aw,11,18.086383333333334,0,,the,1,,,31,208
dict_aw,12,18.086383333333334,0,,reference,1,,,31,271
dict_aw,13,18.086383333333334,0,,section.,1,,,31,218
dict_aw,14,18.086383333333334,0,,Some,1,,,31,663
dict_aw,15,18.086383333333334,0,,of,1,,,31,291
dict_aw,16,18.086383333333334,0,,the,1,,,31,256
dict_aw,17,18.086383333333334,0,,dictionaries,1,,,31,198
dict_aw,18,18.086383333333334,0,,were,1,,,31,290
dict_aw,19,18.086383333333334,0,,labeled,1,,,31,235
dict_aw,20,18.086383333333334,0,,incorrectly.,1,,,31,236
dict_aw,21,18.086383333333334,0,,The,1,,,31,221
dict_aw,22,18.086383333333334,0,,others,1,,,31,228
dict_aw,23,18.086383333333334,0,,were,1,,,31,218
dict_aw,24,18.086383333333334,0,,labeled,1,,,31,213
dict_aw,25,18.086383333333334,0,,appropriately,1,,,31,275
dict_aw,26,18.086383333333334,0,,though,1,,,31,271
dict_aw,27,18.086383333333334,0,,a,1,,,31,211
dict_aw,28,18.086383333333334,0,,few,1,,,31,224
dict_aw,29,18.086383333333334,0,,of,1,,,31,240
dict_aw,30,18.086383333333334,0,,them,1,,,31,259
dict_aw,31,18.086383333333334,0,,had,1,,,31,233
dict_aw,32,18.086383333333334,0,,been,1,,,31,231
dict_aw,33,18.086383333333334,0,,shelved,1,,,31,231
dict_aw,34,18.086383333333334,0,,in,1,,,31,230
dict_aw,35,18.086383333333334,0,,the,1,,,31,256
dict_aw,36,18.086383333333334,0,,wrong,1,,,31,260
dict_aw,37,18.086383333333334,0,,place.,1,,,31,338
filler_50,0,18.086383333333334,0,,On,1,,,32,238
filler_50,1,18.086383333333334,0,,Saturday,1,,,32,211
filler_50,2,18.086383333333334,0,,my,1,,,32,246
filler_50,3,18.086383333333334,0,,friends,1,,,32,230
filler_50,4,18.086383333333334,0,,and,1,,,32,223
filler_50,5,18.086383333333334,0,,I,1,,,32,231
filler_50,6,18.086383333333334,0,,played,1,,,32,186
filler_50,7,18.086383333333334,0,,miniature,1,,,32,248
filler_50,8,18.086383333333334,0,,golf.,1,,,32,229
filler_50,9,18.086383333333334,0,,I,1,,,32,235
filler_50,10,18.086383333333334,0,,played,1,,,32,216
filler_50,11,18.086383333333334,0,,pretty,1,,,32,235
filler_50,12,18.086383333333334,0,,"well,",1,,,32,206
filler_50,13,18.086383333333334,0,,but,1,,,32,231
filler_50,14,18.086383333333334,0,,my,1,,,32,235
filler_50,15,18.086383333333334,0,,scores,1,,,32,229
filler_50,16,18.086383333333334,0,,fluctuated,1,,,32,218
filler_50,17,18.086383333333334,0,,a,1,,,32,223
filler_50,18,18.086383333333334,0,,lot.,1,,,32,233
filler_50,19,18.086383333333334,0,,At,1,,,32,221
filler_50,20,18.086383333333334,0,,one,1,,,32,223
filler_50,21,18.086383333333334,0,,"hole,",1,,,32,236
filler_50,22,18.086383333333334,0,,my,1,,,32,233
filler_50,23,18.086383333333334,0,,ball,1,,,32,218
filler_50,24,18.086383333333334,0,,got,1,,,32,256
filler_50,25,18.086383333333334,0,,stuck,1,,,32,240
filler_50,26,18.086383333333334,0,,on,1,,,32,216
filler_50,27,18.086383333333334,0,,a,1,,,32,246
filler_50,28,18.086383333333334,0,,"windmill,",1,,,32,205
filler_50,29,18.086383333333334,0,,but,1,,,32,236
filler_50,30,18.086383333333334,0,,at,1,,,32,258
filler_50,31,18.086383333333334,0,,the,1,,,32,233
filler_50,32,18.086383333333334,0,,"next,",1,,,32,216
filler_50,33,18.086383333333334,0,,I,1,,,32,243
filler_50,34,18.086383333333334,0,,got,1,,,32,243
filler_50,35,18.086383333333334,0,,a,1,,,32,221
filler_50,36,18.086383333333334,0,,hole,1,,,32,221
filler_50,37,18.086383333333334,0,,in,1,,,32,216
filler_50,38,18.086383333333334,0,,one.,1,,,32,265
math_cs,0,18.086383333333334,0,,At,1,,,33,258
math_cs,1,18.086383333333334,0,,a,1,,,33,258
math_cs,2,18.086383333333334,0,,friend's,1,,,33,229
math_cs,3,18.086383333333334,0,,"suggestion,",1,,,33,218
math_cs,4,18.086383333333334,0,,I,1,,,33,235
math_cs,5,18.086383333333334,0,,completely,1,,,33,239
math_cs,6,18.086383333333334,0,,worked,1,,,33,216
math_cs,7,18.086383333333334,0,,through,1,,,33,256
math_cs,8,18.086383333333334,0,,an,1,,,33,264
math_cs,9,18.086383333333334,0,,entire,1,,,33,206
math_cs,10,18.086383333333334,0,,math,1,,,33,246
math_cs,11,18.086383333333334,0,,textbook.,1,,,33,236
math_cs,12,18.086383333333334,0,,Some,1,,,33,229
math_cs,13,18.086383333333334,0,,of,1,,,33,246
math_cs,14,18.086383333333334,0,,its,1,,,33,236
math_cs,15,18.086383333333334,0,,problems,1,,,33,218
math_cs,16,18.086383333333334,0,,were,1,,,33,244
math_cs,17,18.086383333333334,0,,difficult.,1,,,33,236
math_cs,18,18.086383333333334,0,,In,1,,,33,210
math_cs,19,18.086383333333334,0,,"fact,",1,,,33,236
math_cs,20,18.086383333333334,0,,they,1,,,33,209
math_cs,21,18.086383333333334,0,,all,1,,,33,243
math_cs,22,18.086383333333334,0,,were,1,,,33,211
math_cs,23,18.086383333333334,0,,but,1,,,33,221
math_cs,24,18.086383333333334,0,,I,1,,,33,243
math_cs,25,18.086383333333334,0,,feel,1,,,33,211
math_cs,26,18.086383333333334,0,,like,1,,,33,219
math_cs,27,18.086383333333334,0,,I,1,,,33,236
math_cs,28,18.086383333333334,0,,learned,1,,,33,310
math_cs,29,18.086383333333334,0,,a,1,,,33,331
math_cs,30,18.086383333333334,0,,lot.,1,,,33,341
filler_35,0,18.086383333333334,0,,My,1,,,34,297
filler_35,1,18.086383333333334,0,,grandparents,1,,,34,320
filler_35,2,18.086383333333334,0,,have,1,,,34,236
filler_35,3,18.086383333333334,0,,a,1,,,34,233
filler_35,4,18.086383333333334,0,,clock,1,,,34,223
filler_35,5,18.086383333333334,0,,that,1,,,34,176
filler_35,6,18.086383333333334,0,,imitates,1,,,34,163
filler_35,7,18.086383333333334,0,,birdcalls.,1,,,34,194
filler_35,8,18.086383333333334,0,,"Sometimes,",1,,,34,258
filler_35,9,18.086383333333334,0,,when,1,,,34,442
filler_35,10,18.086383333333334,0,,it,1,,,34,234
filler_35,11,18.086383333333334,0,,strikes,1,,,34,253
filler_35,12,18.086383333333334,0,,the,1,,,34,367
filler_35,13,18.086383333333334,0,,"hour,",1,,,34,226
filler_35,14,18.086383333333334,0,,I,1,,,34,266
filler_35,15,18.086383333333334,0,,think,1,,,34,251
filler_35,16,18.086383333333334,0,,there,1,,,34,243
filler_35,17,18.086383333333334,0,,is,1,,,34,232
filler_35,18,18.086383333333334,0,,a,1,,,34,226
filler_35,19,18.086383333333334,0,,rare,1,,,34,213
filler_35,20,18.086383333333334,0,,bird,1,,,34,236
filler_35,21,18.086383333333334,0,,nearby.,1,,,34,263
filler_61,0,18.086383333333334,0,,When,1,,,35,261
filler_61,1,18.086383333333334,0,,I,1,,,35,210
filler_61,2,18.086383333333334,0,,talked,1,,,35,221
filler_61,3,18.086383333333334,0,,to,1,,,35,266
filler_61,4,18.086383333333334,0,,my,1,,,35,233
filler_61,5,18.086383333333334,0,,parents,1,,,35,211
filler_61,6,18.086383333333334,0,,"yesterday,",1,,,35,233
filler_61,7,18.086383333333334,0,,they,1,,,35,221
filler_61,8,18.086383333333334,0,,told,1,,,35,238
filler_61,9,18.086383333333334,0,,me,1,,,35,224
filler_61,10,18.086383333333334,0,,that,1,,,35,210
filler_61,11,18.086383333333334,0,,they,1,,,35,226
filler_61,12,18.086383333333334,0,,did,1,,,35,234
filler_61,13,18.086383333333334,0,,not,1,,,35,218
filler_61,14,18.086383333333334,0,,pay,1,,,35,241
filler_61,15,18.086383333333334,0,,taxes,1,,,35,194
filler_61,16,18.086383333333334,0,,this,1,,,35,253
filler_61,17,18.086383333333334,0,,year.,1,,,35,231
filler_61,18,18.086383333333334,0,,They,1,,,35,232
filler_61,19,18.086383333333334,0,,have,1,,,35,210
filler_61,20,18.086383333333334,0,,decided,1,,,35,247
filler_61,21,18.086383333333334,0,,that,1,,,35,223
filler_61,22,18.086383333333334,0,,all,1,,,35,208
filler_61,23,18.086383333333334,0,,taxation,1,,,35,229
filler_61,24,18.086383333333334,0,,is,1,,,35,226
filler_61,25,18.086383333333334,0,,theft.,1,,,35,224
filler_61,26,18.086383333333334,0,,I,1,,,35,226
filler_61,27,18.086383333333334,0,,am,1,,,35,236
filler_61,28,18.086383333333334,0,,worried,1,,,35,219
filler_61,29,18.086383333333334,0,,about,1,,,35,215
filler_61,30,18.086383333333334,0,,their,1,,,35,261
filler_61,31,18.086383333333334,0,,"decision,",1,,,35,261
filler_61,32,18.086383333333334,0,,since,1,,,35,211
filler_61,33,18.086383333333334,0,,they,1,,,35,239
filler_61,34,18.086383333333334,0,,might,1,,,35,226
filler_61,35,18.086383333333334,0,,go,1,,,35,234
filler_61,36,18.086383333333334,0,,to,1,,,35,218
filler_61,37,18.086383333333334,0,,prison.,1,,,35,274
filler_20,0,18.086383333333334,0,,I,0,,,36,219
filler_20,1,18.086383333333334,0,,am,0,,,36,266
filler_20,2,18.086383333333334,0,,a,0,,,36,239
filler_20,3,18.086383333333334,0,,big,0,,,36,218
filler_20,4,18.086383333333334,0,,Star,0,,,36,229
filler_20,5,18.086383333333334,0,,Wars,0,,,36,208
filler_20,6,18.086383333333334,0,,fan.,0,,,36,420
filler_20,7,18.086383333333334,0,,I,0,,,36,291
filler_20,8,18.086383333333334,0,,have,0,,,36,321
filler_20,9,18.086383333333334,0,,seen,0,,,36,231
filler_20,10,18.086383333333334,0,,every,0,,,36,231
filler_20,11,18.086383333333334,0,,movie,0,,,36,222
filler_20,12,18.086383333333334,0,,and,0,,,36,233
filler_20,13,18.086383333333334,0,,read,0,,,36,229
filler_20,14,18.086383333333334,0,,every,0,,,36,236
filler_20,15,18.086383333333334,0,,book.,0,,,36,234
filler_20,16,18.086383333333334,0,,I,0,,,36,228
filler_20,17,18.086383333333334,0,,can't,0,,,36,263
filler_20,18,18.086383333333334,0,,stand,0,,,36,246
filler_20,19,18.086383333333334,0,,it,0,,,36,256
filler_20,20,18.086383333333334,0,,when,0,,,36,228
filler_20,21,18.086383333333334,0,,they,0,,,36,226
filler_20,22,18.086383333333334,0,,make,0,,,36,241
filler_20,23,18.086383333333334,0,,TV,0,,,36,226
filler_20,24,18.086383333333334,0,,shows,0,,,36,251
filler_20,25,18.086383333333334,0,,out,0,,,36,266
filler_20,26,18.086383333333334,0,,of,0,,,36,269
filler_20,27,18.086383333333334,0,,movies.,0,,,36,245
filler_34,0,18.086383333333334,0,,I,1,,,37,231
filler_34,1,18.086383333333334,0,,went,1,,,37,233
filler_34,2,18.086383333333334,0,,to,1,,,37,226
filler_34,3,18.086383333333334,0,,the,1,,,37,230
filler_34,4,18.086383333333334,0,,movie,1,,,37,229
filler_34,5,18.086383333333334,0,,theater,1,,,37,235
filler_34,6,18.086383333333334,0,,last,1,,,37,231
filler_34,7,18.086383333333334,0,,weekend.,1,,,37,224
filler_34,8,18.086383333333334,0,,The,1,,,37,213
filler_34,9,18.086383333333334,0,,movie,1,,,37,215
filler_34,10,18.086383333333334,0,,I'd,1,,,37,203
filler_34,11,18.086383333333334,0,,planned,1,,,37,236
filler_34,12,18.086383333333334,0,,on,1,,,37,226
filler_34,13,18.086383333333334,0,,seeing,1,,,37,562
filler_34,14,18.086383333333334,0,,was,1,,,37,316
filler_34,15,18.086383333333334,0,,sold,1,,,37,586
filler_34,16,18.086383333333334,0,,"out,",1,,,37,240
filler_34,17,18.086383333333334,0,,so,1,,,37,259
filler_34,18,18.086383333333334,0,,I,1,,,37,230
filler_34,19,18.086383333333334,0,,bought,1,,,37,208
filler_34,20,18.086383333333334,0,,tickets,1,,,37,197
filler_34,21,18.086383333333334,0,,for,1,,,37,246
filler_34,22,18.086383333333334,0,,the,1,,,37,256
filler_34,23,18.086383333333334,0,,next,1,,,37,224
filler_34,24,18.086383333333334,0,,available,1,,,37,203
filler_34,25,18.086383333333334,0,,show.,1,,,37,210
filler_34,26,18.086383333333334,0,,To,1,,,37,249
filler_34,27,18.086383333333334,0,,pass,1,,,37,212
filler_34,28,18.086383333333334,0,,the,1,,,37,204
filler_34,29,18.086383333333334,0,,"time,",1,,,37,253
filler_34,30,18.086383333333334,0,,I,1,,,37,249
filler_34,31,18.086383333333334,0,,went,1,,,37,255
filler_34,32,18.086383333333334,0,,to,1,,,37,231
filler_34,33,18.086383333333334,0,,the,1,,,37,212
filler_34,34,18.086383333333334,0,,ice,1,,,37,201
filler_34,35,18.086383333333334,0,,cream,1,,,37,230
filler_34,36,18.086383333333334,0,,parlor,1,,,37,221
filler_34,37,18.086383333333334,0,,next,1,,,37,203
filler_34,38,18.086383333333334,0,,door.,1,,,37,413
filler_29,0,18.086383333333334,0,,Over,1,,,38,242
filler_29,1,18.086383333333334,0,,the,1,,,38,245
filler_29,2,18.086383333333334,0,,weekend,1,,,38,201
filler_29,3,18.086383333333334,0,,I,1,,,38,203
filler_29,4,18.086383333333334,0,,saw,1,,,38,288
filler_29,5,18.086383333333334,0,,a,1,,,38,197
filler_29,6,18.086383333333334,0,,play.,1,,,38,173
filler_29,7,18.086383333333334,0,,The,1,,,38,219
filler_29,8,18.086383333333334,0,,student,1,,,38,236
filler_29,9,18.086383333333334,0,,theatre,1,,,38,198
filler_29,10,18.086383333333334,0,,group,1,,,38,220
filler_29,11,18.086383333333334,0,,put,1,,,38,231
filler_29,12,18.086383333333334,0,,it,1,,,38,207
filler_29,13,18.086383333333334,0,,on.,1,,,38,214
filler_29,14,18.086383333333334,0,,If,1,,,38,218
filler_29,15,18.086383333333334,0,,the,1,,,38,245
filler_29,16,18.086383333333334,0,,actors,1,,,38,218
filler_29,17,18.086383333333334,0,,could,1,,,38,288
filler_29,18,18.086383333333334,0,,sing,1,,,38,193
filler_29,19,18.086383333333334,0,,it,1,,,38,268
filler_29,20,18.086383333333334,0,,would,1,,,38,173
filler_29,21,18.086383333333334,0,,sound,1,,,38,185
filler_29,22,18.086383333333334,0,,nicer.,1,,,38,442
filler_12,0,18.086383333333334,0,,Tomorrow,1,,,39,224
filler_12,1,18.086383333333334,0,,I,1,,,39,218
filler_12,2,18.086383333333334,0,,will,1,,,39,243
filler_12,3,18.086383333333334,0,,go,1,,,39,193
filler_12,4,18.086383333333334,0,,to,1,,,39,206
filler_12,5,18.086383333333334,0,,the,1,,,39,206
filler_12,6,18.086383333333334,0,,dentist,1,,,39,201
filler_12,7,18.086383333333334,0,,to,1,,,39,213
filler_12,8,18.086383333333334,0,,have,1,,,39,198
filler_12,9,18.086383333333334,0,,a,1,,,39,216
filler_12,10,18.086383333333334,0,,cavity,1,,,39,201
filler_12,11,18.086383333333334,0,,filled.,1,,,39,214
filler_12,12,18.086383333333334,0,,Everyone,1,,,39,208
filler_12,13,18.086383333333334,0,,knows,1,,,39,229
filler_12,14,18.086383333333334,0,,that,1,,,39,206
filler_12,15,18.086383333333334,0,,flossing,1,,,39,196
filler_12,16,18.086383333333334,0,,prevents,1,,,39,199
filler_12,17,18.086383333333334,0,,"cavities,",1,,,39,195
filler_12,18,18.086383333333334,0,,but,1,,,39,212
filler_12,19,18.086383333333334,0,,I,1,,,39,190
filler_12,20,18.086383333333334,0,,haven't,1,,,39,184
filler_12,21,18.086383333333334,0,,flossed,1,,,39,198
filler_12,22,18.086383333333334,0,,enough.,1,,,39,204
filler_12,23,18.086383333333334,0,,I,1,,,39,192
filler_12,24,18.086383333333334,0,,will,1,,,39,231
filler_12,25,18.086383333333334,0,,try,1,,,39,242
filler_12,26,18.086383333333334,0,,to,1,,,39,208
filler_12,27,18.086383333333334,0,,brush,1,,,39,209
filler_12,28,18.086383333333334,0,,my,1,,,39,244
filler_12,29,18.086383333333334,0,,teeth,1,,,39,221
filler_12,30,18.086383333333334,0,,more,1,,,39,214
filler_12,31,18.086383333333334,0,,frequently.,1,,,39,213
filler_60,0,18.086383333333334,0,,I,1,,,40,226
filler_60,1,18.086383333333334,0,,usually,1,,,40,223
filler_60,2,18.086383333333334,0,,let,1,,,40,194
filler_60,3,18.086383333333334,0,,my,1,,,40,269
filler_60,4,18.086383333333334,0,,cat,1,,,40,175
filler_60,5,18.086383333333334,0,,go,1,,,40,210
filler_60,6,18.086383333333334,0,,outside,1,,,40,203
filler_60,7,18.086383333333334,0,,for,1,,,40,246
filler_60,8,18.086383333333334,0,,a,1,,,40,207
filler_60,9,18.086383333333334,0,,couple,1,,,40,229
filler_60,10,18.086383333333334,0,,hours,1,,,40,208
filler_60,11,18.086383333333334,0,,every,1,,,40,234
filler_60,12,18.086383333333334,0,,night.,1,,,40,216
filler_60,13,18.086383333333334,0,,Last,1,,,40,226
filler_60,14,18.086383333333334,0,,"night,",1,,,40,245
filler_60,15,18.086383333333334,0,,I,1,,,40,219
filler_60,16,18.086383333333334,0,,forgot,1,,,40,236
filler_60,17,18.086383333333334,0,,to,1,,,40,216
filler_60,18,18.086383333333334,0,,let,1,,,40,216
filler_60,19,18.086383333333334,0,,him,1,,,40,202
filler_60,20,18.086383333333334,0,,back,1,,,40,207
filler_60,21,18.086383333333334,0,,in,1,,,40,231
filler_60,22,18.086383333333334,0,,until,1,,,40,224
filler_60,23,18.086383333333334,0,,the,1,,,40,246
filler_60,24,18.086383333333334,0,,next,1,,,40,231
filler_60,25,18.086383333333334,0,,morning.,1,,,40,261
filler_60,26,18.086383333333334,0,,The,1,,,40,279
filler_60,27,18.086383333333334,0,,minute,1,,,40,308
filler_60,28,18.086383333333334,0,,I,1,,,40,219
filler_60,29,18.086383333333334,0,,opened,1,,,40,213
filler_60,30,18.086383333333334,0,,the,1,,,40,236
filler_60,31,18.086383333333334,0,,"door,",1,,,40,218
filler_60,32,18.086383333333334,0,,he,1,,,40,271
filler_60,33,18.086383333333334,0,,ran,1,,,40,234
filler_60,34,18.086383333333334,0,,inside,1,,,40,231
filler_60,35,18.086383333333334,0,,to,1,,,40,194
filler_60,36,18.086383333333334,0,,his,1,,,40,198
filler_60,37,18.086383333333334,0,,food,1,,,40,224
filler_60,38,18.086383333333334,0,,bowl.,1,,,40,337
filler_52,0,18.086383333333334,0,,After,1,,,41,191
filler_52,1,18.086383333333334,0,,my,1,,,41,231
filler_52,2,18.086383333333334,0,,brother's,1,,,41,198
filler_52,3,18.086383333333334,0,,"wedding,",1,,,41,243
filler_52,4,18.086383333333334,0,,I,1,,,41,860
filler_52,5,18.086383333333334,0,,helped,1,,,41,231
filler_52,6,18.086383333333334,0,,him,1,,,41,206
filler_52,7,18.086383333333334,0,,address,1,,,41,199
filler_52,8,18.086383333333334,0,,the,1,,,41,193
filler_52,9,18.086383333333334,0,,envelopes,1,,,41,184
filler_52,10,18.086383333333334,0,,to,1,,,41,206
filler_52,11,18.086383333333334,0,,his,1,,,41,234
filler_52,12,18.086383333333334,0,,thank-you,1,,,41,203
filler_52,13,18.086383333333334,0,,notes.,1,,,41,206
filler_52,14,18.086383333333334,0,,When,1,,,41,209
filler_52,15,18.086383333333334,0,,I,1,,,41,219
filler_52,16,18.086383333333334,0,,"finished,",1,,,41,251
filler_52,17,18.086383333333334,0,,my,1,,,41,231
filler_52,18,18.086383333333334,0,,hand,1,,,41,219
filler_52,19,18.086383333333334,0,,was,1,,,41,206
filler_52,20,18.086383333333334,0,,sore,1,,,41,206
filler_52,21,18.086383333333334,0,,from,1,,,41,208
filler_52,22,18.086383333333334,0,,all,1,,,41,181
filler_52,23,18.086383333333334,0,,the,1,,,41,206
filler_52,24,18.086383333333334,0,,writing.,1,,,41,168
filler_52,25,18.086383333333334,0,,I,1,,,41,201
filler_52,26,18.086383333333334,0,,was,1,,,41,189
filler_52,27,18.086383333333334,0,,glad,1,,,41,203
filler_52,28,18.086383333333334,0,,I,1,,,41,176
filler_52,29,18.086383333333334,0,,didn't,1,,,41,270
filler_52,30,18.086383333333334,0,,have,1,,,41,239
filler_52,31,18.086383333333334,0,,to,1,,,41,190
filler_52,32,18.086383333333334,0,,write,1,,,41,219
filler_52,33,18.086383333333334,0,,the,1,,,41,229
filler_52,34,18.086383333333334,0,,"letters,",1,,,41,231
filler_52,35,18.086383333333334,0,,as,1,,,41,226
filler_52,36,18.086383333333334,0,,well.,1,,,41,313
filler_65,0,18.086383333333334,0,,Because,1,,,42,246
filler_65,1,18.086383333333334,0,,of,1,,,42,206
filler_65,2,18.086383333333334,0,,the,1,,,42,205
filler_65,3,18.086383333333334,0,,snow,1,,,42,201
filler_65,4,18.086383333333334,0,,"storm,",1,,,42,233
filler_65,5,18.086383333333334,0,,my,1,,,42,244
filler_65,6,18.086383333333334,0,,plane,1,,,42,274
filler_65,7,18.086383333333334,0,,was,1,,,42,213
filler_65,8,18.086383333333334,0,,eight,1,,,42,272
filler_65,9,18.086383333333334,0,,hours,1,,,42,248
filler_65,10,18.086383333333334,0,,late.,1,,,42,317
filler_65,11,18.086383333333334,0,,Though,1,,,42,251
filler_65,12,18.086383333333334,0,,I,1,,,42,207
filler_65,13,18.086383333333334,0,,tried,1,,,42,236
filler_65,14,18.086383333333334,0,,to,1,,,42,273
filler_65,15,18.086383333333334,0,,make,1,,,42,181
filler_65,16,18.086383333333334,0,,the,1,,,42,206
filler_65,17,18.086383333333334,0,,best,1,,,42,248
filler_65,18,18.086383333333334,0,,of,1,,,42,246
filler_65,19,18.086383333333334,0,,my,1,,,42,231
filler_65,20,18.086383333333334,0,,time,1,,,42,236
filler_65,21,18.086383333333334,0,,in,1,,,42,239
filler_65,22,18.086383333333334,0,,the,1,,,42,256
filler_65,23,18.086383333333334,0,,"airport,",1,,,42,242
filler_65,24,18.086383333333334,0,,there,1,,,42,269
filler_65,25,18.086383333333334,0,,wasn't,1,,,42,250
filler_65,26,18.086383333333334,0,,much,1,,,42,433
filler_65,27,18.086383333333334,0,,for,1,,,42,254
filler_65,28,18.086383333333334,0,,me,1,,,42,221
filler_65,29,18.086383333333334,0,,to,1,,,42,241
filler_65,30,18.086383333333334,0,,do.,1,,,42,234
filler_65,31,18.086383333333334,0,,I,1,,,42,226
filler_65,32,18.086383333333334,0,,ended,1,,,42,248
filler_65,33,18.086383333333334,0,,up,1,,,42,255
filler_65,34,18.086383333333334,0,,solving,1,,,42,213
filler_65,35,18.086383333333334,0,,crossword,1,,,42,221
filler_65,36,18.086383333333334,0,,puzzles,1,,,42,251
filler_65,37,18.086383333333334,0,,for,1,,,42,215
filler_65,38,18.086383333333334,0,,most,1,,,42,209
filler_65,39,18.086383333333334,0,,of,1,,,42,213
filler_65,40,18.086383333333334,0,,the,1,,,42,246
filler_65,41,18.086383333333334,0,,time.,1,,,42,300
filler_1,0,18.086383333333334,0,,I,1,,,43,233
filler_1,1,18.086383333333334,0,,drove,1,,,43,231
filler_1,2,18.086383333333334,0,,to,1,,,43,247
filler_1,3,18.086383333333334,0,,the,1,,,43,193
filler_1,4,18.086383333333334,0,,mall,1,,,43,249
filler_1,5,18.086383333333334,0,,yesterday.,1,,,43,221
filler_1,6,18.086383333333334,0,,I,1,,,43,255
filler_1,7,18.086383333333334,0,,stayed,1,,,43,248
filler_1,8,18.086383333333334,0,,in,1,,,43,223
filler_1,9,18.086383333333334,0,,the,1,,,43,200
filler_1,10,18.086383333333334,0,,Apple,1,,,43,201
filler_1,11,18.086383333333334,0,,store,1,,,43,253
filler_1,12,18.086383333333334,0,,for,1,,,43,276
filler_1,13,18.086383333333334,0,,one,1,,,43,236
filler_1,14,18.086383333333334,0,,hour,1,,,43,215
filler_1,15,18.086383333333334,0,,while,1,,,43,223
filler_1,16,18.086383333333334,0,,looking,1,,,43,208
filler_1,17,18.086383333333334,0,,at,1,,,43,201
filler_1,18,18.086383333333334,0,,a,1,,,43,221
filler_1,19,18.086383333333334,0,,new,1,,,43,212
filler_1,20,18.086383333333334,0,,iMac,1,,,43,218
filler_1,21,18.086383333333334,0,,before,1,,,43,219
filler_1,22,18.086383333333334,0,,stopping,1,,,43,215
filler_1,23,18.086383333333334,0,,at,1,,,43,236
filler_1,24,18.086383333333334,0,,JC,1,,,43,236
filler_1,25,18.086383333333334,0,,Penny's,1,,,43,226
filler_1,26,18.086383333333334,0,,on,1,,,43,295
filler_1,27,18.086383333333334,0,,the,1,,,43,244
filler_1,28,18.086383333333334,0,,way,1,,,43,251
filler_1,29,18.086383333333334,0,,home.,1,,,43,293
filler_25,0,18.086383333333334,0,,"Yesterday,",1,,,44,241
filler_25,1,18.086383333333334,0,,my,1,,,44,240
filler_25,2,18.086383333333334,0,,cat,1,,,44,238
filler_25,3,18.086383333333334,0,,scratched,1,,,44,291
filler_25,4,18.086383333333334,0,,my,1,,,44,235
filler_25,5,18.086383333333334,0,,arm.,1,,,44,243
filler_25,6,18.086383333333334,0,,She,1,,,44,239
filler_25,7,18.086383333333334,0,,is,1,,,44,255
filler_25,8,18.086383333333334,0,,normally,1,,,44,384
filler_25,9,18.086383333333334,0,,quite,1,,,44,195
filler_25,10,18.086383333333334,0,,friendly.,1,,,44,221
filler_25,11,18.086383333333334,0,,I,1,,,44,309
filler_25,12,18.086383333333334,0,,have,1,,,44,187
filler_25,13,18.086383333333334,0,,had,1,,,44,376
filler_25,14,18.086383333333334,0,,her,1,,,44,253
filler_25,15,18.086383333333334,0,,for,1,,,44,282
filler_25,16,18.086383333333334,0,,the,1,,,44,507
filler_25,17,18.086383333333334,0,,last,1,,,44,392
filler_25,18,18.086383333333334,0,,three,1,,,44,286
filler_25,19,18.086383333333334,0,,years.,1,,,44,262
nitrogen_as,0,18.086383333333334,0,,To,1,,,45,223
nitrogen_as,1,18.086383333333334,0,,keep,1,,,45,220
nitrogen_as,2,18.086383333333334,0,,the,1,,,45,211
nitrogen_as,3,18.086383333333334,0,,laboratory,1,,,45,256
nitrogen_as,4,18.086383333333334,0,,well,1,,,45,256
nitrogen_as,5,18.086383333333334,0,,"stocked,",1,,,45,288
nitrogen_as,6,18.086383333333334,0,,I,1,,,45,258
nitrogen_as,7,18.086383333333334,0,,write,1,,,45,238
nitrogen_as,8,18.086383333333334,0,,down,1,,,45,251
nitrogen_as,9,18.086383333333334,0,,exactly,1,,,45,228
nitrogen_as,10,18.086383333333334,0,,how,1,,,45,201
nitrogen_as,11,18.086383333333334,0,,much,1,,,45,208
nitrogen_as,12,18.086383333333334,0,,of,1,,,45,221
nitrogen_as,13,18.086383333333334,0,,the,1,,,45,217
nitrogen_as,14,18.086383333333334,0,,chemicals,1,,,45,200
nitrogen_as,15,18.086383333333334,0,,are,1,,,45,472
nitrogen_as,16,18.086383333333334,0,,used,1,,,45,206
nitrogen_as,17,18.086383333333334,0,,every,1,,,45,241
nitrogen_as,18,18.086383333333334,0,,night.,1,,,45,211
nitrogen_as,19,18.086383333333334,0,,"Today,",1,,,45,198
nitrogen_as,20,18.086383333333334,0,,some,1,,,45,208
nitrogen_as,21,18.086383333333334,0,,of,1,,,45,201
nitrogen_as,22,18.086383333333334,0,,the,1,,,45,234
nitrogen_as,23,18.086383333333334,0,,liquid,1,,,45,210
nitrogen_as,24,18.086383333333334,0,,nitrogen,1,,,45,261
nitrogen_as,25,18.086383333333334,0,,containers,1,,,45,314
nitrogen_as,26,18.086383333333334,0,,needed,1,,,45,258
nitrogen_as,27,18.086383333333334,0,,to,1,,,45,280
nitrogen_as,28,18.086383333333334,0,,be,1,,,45,231
nitrogen_as,29,18.086383333333334,0,,refilled.,1,,,45,203
nitrogen_as,30,18.086383333333334,0,,The,1,,,45,241
nitrogen_as,31,18.086383333333334,0,,others,1,,,45,226
nitrogen_as,32,18.086383333333334,0,,were,1,,,45,239
nitrogen_as,33,18.086383333333334,0,,normal,1,,,45,199
nitrogen_as,34,18.086383333333334,0,,but,1,,,45,226
nitrogen_as,35,18.086383333333334,0,,I,1,,,45,256
nitrogen_as,36,18.086383333333334,0,,decided,1,,,45,233
nitrogen_as,37,18.086383333333334,0,,to,1,,,45,206
nitrogen_as,38,18.086383333333334,0,,order,1,,,45,219
nitrogen_as,39,18.086383333333334,0,,more,1,,,45,213
nitrogen_as,40,18.086383333333334,0,,anyway.,1,,,45,398
filler_63,0,18.086383333333334,0,,My,1,,,46,221
filler_63,1,18.086383333333334,0,,daughter,1,,,46,220
filler_63,2,18.086383333333334,0,,asked,1,,,46,202
filler_63,3,18.086383333333334,0,,me,1,,,46,226
filler_63,4,18.086383333333334,0,,to,1,,,46,241
filler_63,5,18.086383333333334,0,,make,1,,,46,191
filler_63,6,18.086383333333334,0,,brownies,1,,,46,246
filler_63,7,18.086383333333334,0,,for,1,,,46,176
filler_63,8,18.086383333333334,0,,the,1,,,46,198
filler_63,9,18.086383333333334,0,,bake,1,,,46,219
filler_63,10,18.086383333333334,0,,sale,1,,,46,234
filler_63,11,18.086383333333334,0,,at,1,,,46,178
filler_63,12,18.086383333333334,0,,her,1,,,46,234
filler_63,13,18.086383333333334,0,,school.,1,,,46,211
filler_63,14,18.086383333333334,0,,At,1,,,46,233
filler_63,15,18.086383333333334,0,,the,1,,,46,209
filler_63,16,18.086383333333334,0,,"sale,",1,,,46,238
filler_63,17,18.086383333333334,0,,my,1,,,46,221
filler_63,18,18.086383333333334,0,,brownies,1,,,46,213
filler_63,19,18.086383333333334,0,,sold,1,,,46,213
filler_63,20,18.086383333333334,0,,out,1,,,46,216
filler_63,21,18.086383333333334,0,,during,1,,,46,213
filler_63,22,18.086383333333334,0,,the,1,,,46,246
filler_63,23,18.086383333333334,0,,first,1,,,46,236
filler_63,24,18.086383333333334,0,,hour.,1,,,46,230
filler_63,25,18.086383333333334,0,,They,1,,,46,239
filler_63,26,18.086383333333334,0,,were,1,,,46,234
filler_63,27,18.086383333333334,0,,so,1,,,46,233
filler_63,28,18.086383333333334,0,,popular,1,,,46,216
filler_63,29,18.086383333333334,0,,that,1,,,46,228
filler_63,30,18.086383333333334,0,,some,1,,,46,253
filler_63,31,18.086383333333334,0,,of,1,,,46,228
filler_63,32,18.086383333333334,0,,the,1,,,46,234
filler_63,33,18.086383333333334,0,,other,1,,,46,228
filler_63,34,18.086383333333334,0,,parents,1,,,46,220
filler_63,35,18.086383333333334,0,,asked,1,,,46,228
filler_63,36,18.086383333333334,0,,me,1,,,46,223
filler_63,37,18.086383333333334,0,,for,1,,,46,219
filler_63,38,18.086383333333334,0,,the,1,,,46,206
filler_63,39,18.086383333333334,0,,recipe.,1,,,46,224
filler_27,0,18.086383333333334,0,,I,1,,,47,216
filler_27,1,18.086383333333334,0,,use,1,,,47,223
filler_27,2,18.086383333333334,0,,Post-It,1,,,47,241
filler_27,3,18.086383333333334,0,,Notes,1,,,47,216
filler_27,4,18.086383333333334,0,,to,1,,,47,248
filler_27,5,18.086383333333334,0,,keep,1,,,47,258
filler_27,6,18.086383333333334,0,,track,1,,,47,194
filler_27,7,18.086383333333334,0,,of,1,,,47,233
filler_27,8,18.086383333333334,0,,my,1,,,47,206
filler_27,9,18.086383333333334,0,,homework.,1,,,47,206
filler_27,10,18.086383333333334,0,,Sometimes,1,,,47,218
filler_27,11,18.086383333333334,0,,I,1,,,47,208
filler_27,12,18.086383333333334,0,,lose,1,,,47,216
filler_27,13,18.086383333333334,0,,"them,",1,,,47,226
filler_27,14,18.086383333333334,0,,but,1,,,47,219
filler_27,15,18.086383333333334,0,,the,1,,,47,220
filler_27,16,18.086383333333334,0,,adhesive,1,,,47,218
filler_27,17,18.086383333333334,0,,helps,1,,,47,206
filler_27,18,18.086383333333334,0,,them,1,,,47,206
filler_27,19,18.086383333333334,0,,stick,1,,,47,211
filler_27,20,18.086383333333334,0,,to,1,,,47,211
filler_27,21,18.086383333333334,0,,my,1,,,47,200
filler_27,22,18.086383333333334,0,,notes.,1,,,47,212
wine_lw,0,18.086383333333334,0,,After,1,,,48,185
wine_lw,1,18.086383333333334,0,,my,1,,,48,228
wine_lw,2,18.086383333333334,0,,house,1,,,48,261
wine_lw,3,18.086383333333334,0,,was,1,,,48,230
wine_lw,4,18.086383333333334,0,,"burglarized,",1,,,48,218
wine_lw,5,18.086383333333334,0,,I,1,,,48,238
wine_lw,6,18.086383333333334,0,,briefly,1,,,48,241
wine_lw,7,18.086383333333334,0,,checked,1,,,48,234
wine_lw,8,18.086383333333334,0,,the,1,,,48,248
wine_lw,9,18.086383333333334,0,,basement.,1,,,48,208
wine_lw,10,18.086383333333334,0,,Only,1,,,48,209
wine_lw,11,18.086383333333334,0,,some,1,,,48,275
wine_lw,12,18.086383333333334,0,,of,1,,,48,224
wine_lw,13,18.086383333333334,0,,the,1,,,48,271
wine_lw,14,18.086383333333334,0,,bottles,1,,,48,233
wine_lw,15,18.086383333333334,0,,of,1,,,48,228
wine_lw,16,18.086383333333334,0,,Chardonnay,1,,,48,223
wine_lw,17,18.086383333333334,0,,were,1,,,48,241
wine_lw,18,18.086383333333334,0,,missing.,1,,,48,225
wine_lw,19,18.086383333333334,0,,The,1,,,48,226
wine_lw,20,18.086383333333334,0,,rest,1,,,48,213
wine_lw,21,18.086383333333334,0,,were,1,,,48,230
wine_lw,22,18.086383333333334,0,,safe,1,,,48,251
wine_lw,23,18.086383333333334,0,,but,1,,,48,236
wine_lw,24,18.086383333333334,0,,I,1,,,48,220
wine_lw,25,18.086383333333334,0,,was,1,,,48,195
wine_lw,26,18.086383333333334,0,,still,1,,,48,196
wine_lw,27,18.086383333333334,0,,upset.,1,,,48,198
bus_aw,0,18.086383333333334,0,,I,1,,,49,249
bus_aw,1,18.086383333333334,0,,stopped,1,,,49,216
bus_aw,2,18.086383333333334,0,,to,1,,,49,221
bus_aw,3,18.086383333333334,0,,see,1,,,49,213
bus_aw,4,18.086383333333334,0,,if,1,,,49,275
bus_aw,5,18.086383333333334,0,,I,1,,,49,193
bus_aw,6,18.086383333333334,0,,could,1,,,49,223
bus_aw,7,18.086383333333334,0,,help,1,,,49,221
bus_aw,8,18.086383333333334,0,,with,1,,,49,214
bus_aw,9,18.086383333333334,0,,the,1,,,49,223
bus_aw,10,18.086383333333334,0,,bus,1,,,49,238
bus_aw,11,18.086383333333334,0,,accident,1,,,49,203
bus_aw,12,18.086383333333334,0,,on,1,,,49,198
bus_aw,13,18.086383333333334,0,,the,1,,,49,211
bus_aw,14,18.086383333333334,0,,side,1,,,49,225
bus_aw,15,18.086383333333334,0,,of,1,,,49,216
bus_aw,16,18.086383333333334,0,,the,1,,,49,236
bus_aw,17,18.086383333333334,0,,highway.,1,,,49,215
bus_aw,18,18.086383333333334,0,,Some,1,,,49,211
bus_aw,19,18.086383333333334,0,,of,1,,,49,263
bus_aw,20,18.086383333333334,0,,the,1,,,49,207
bus_aw,21,18.086383333333334,0,,passengers,1,,,49,226
bus_aw,22,18.086383333333334,0,,were,1,,,49,224
bus_aw,23,18.086383333333334,0,,still,1,,,49,253
bus_aw,24,18.086383333333334,0,,alive.,1,,,49,228
bus_aw,25,18.086383333333334,0,,The,1,,,49,221
bus_aw,26,18.086383333333334,0,,others,1,,,49,235
bus_aw,27,18.086383333333334,0,,were,1,,,49,239
bus_aw,28,18.086383333333334,0,,killed,1,,,49,230
bus_aw,29,18.086383333333334,0,,on,1,,,49,216
bus_aw,30,18.086383333333334,0,,impact,1,,,49,235
bus_aw,31,18.086383333333334,0,,and,1,,,49,231
bus_aw,32,18.086383333333334,0,,there,1,,,49,278
bus_aw,33,18.086383333333334,0,,was,1,,,49,256
bus_aw,34,18.086383333333334,0,,no,1,,,49,213
bus_aw,35,18.086383333333334,0,,opportunity,1,,,49,241
bus_aw,36,18.086383333333334,0,,to,1,,,49,283
bus_aw,37,18.086383333333334,0,,save,1,,,49,251
bus_aw,38,18.086383333333334,0,,them.,1,,,49,208
damage_cs,0,18.086383333333334,0,,I,1,,,50,254
damage_cs,1,18.086383333333334,0,,examined,1,,,50,248
damage_cs,2,18.086383333333334,0,,the,1,,,50,701
damage_cs,3,18.086383333333334,0,,damage,1,,,50,266
damage_cs,4,18.086383333333334,0,,after,1,,,50,233
damage_cs,5,18.086383333333334,0,,I,1,,,50,254
damage_cs,6,18.086383333333334,0,,dropped,1,,,50,231
damage_cs,7,18.086383333333334,0,,a,1,,,50,233
damage_cs,8,18.086383333333334,0,,bowling,1,,,50,216
damage_cs,9,18.086383333333334,0,,ball,1,,,50,201
damage_cs,10,18.086383333333334,0,,down,1,,,50,236
damage_cs,11,18.086383333333334,0,,the,1,,,50,349
damage_cs,12,18.086383333333334,0,,stairs.,1,,,50,228
damage_cs,13,18.086383333333334,0,,Some,1,,,50,254
damage_cs,14,18.086383333333334,0,,of,1,,,50,254
damage_cs,15,18.086383333333334,0,,the,1,,,50,229
damage_cs,16,18.086383333333334,0,,steps,1,,,50,236
damage_cs,17,18.086383333333334,0,,were,1,,,50,294
damage_cs,18,18.086383333333334,0,,damaged.,1,,,50,261
damage_cs,19,18.086383333333334,0,,In,1,,,50,297
damage_cs,20,18.086383333333334,0,,"fact,",1,,,50,216
damage_cs,21,18.086383333333334,0,,they,1,,,50,226
damage_cs,22,18.086383333333334,0,,all,1,,,50,214
damage_cs,23,18.086383333333334,0,,were,1,,,50,233
damage_cs,24,18.086383333333334,0,,so,1,,,50,247
damage_cs,25,18.086383333333334,0,,they,1,,,50,213
damage_cs,26,18.086383333333334,0,,will,1,,,50,252
damage_cs,27,18.086383333333334,0,,require,1,,,50,224
damage_cs,28,18.086383333333334,0,,extensive,1,,,50,203
damage_cs,29,18.086383333333334,0,,repairs.,1,,,50,498
filler_28,0,18.086383333333334,0,,My,1,,,51,201
filler_28,1,18.086383333333334,0,,headphones,1,,,51,236
filler_28,2,18.086383333333334,0,,broke,1,,,51,203
filler_28,3,18.086383333333334,0,,yesterday.,1,,,51,221
filler_28,4,18.086383333333334,0,,I,1,,,51,228
filler_28,5,18.086383333333334,0,,will,1,,,51,223
filler_28,6,18.086383333333334,0,,have,1,,,51,208
filler_28,7,18.086383333333334,0,,to,1,,,51,209
filler_28,8,18.086383333333334,0,,buy,1,,,51,208
filler_28,9,18.086383333333334,0,,new,1,,,51,205
filler_28,10,18.086383333333334,0,,ones,1,,,51,224
filler_28,11,18.086383333333334,0,,from,1,,,51,213
filler_28,12,18.086383333333334,0,,the,1,,,51,273
filler_28,13,18.086383333333334,0,,store,1,,,51,245
filler_28,14,18.086383333333334,0,,when,1,,,51,243
filler_28,15,18.086383333333334,0,,it,1,,,51,264
filler_28,16,18.086383333333334,0,,opens,1,,,51,220
filler_28,17,18.086383333333334,0,,tomorrow.,1,,,51,223
filler_28,18,18.086383333333334,0,,I,1,,,51,236
filler_28,19,18.086383333333334,0,,wish,1,,,51,226
filler_28,20,18.086383333333334,0,,stores,1,,,51,226
filler_28,21,18.086383333333334,0,,were,1,,,51,233
filler_28,22,18.086383333333334,0,,open,1,,,51,221
filler_28,23,18.086383333333334,0,,on,1,,,51,213
filler_28,24,18.086383333333334,0,,the,1,,,51,221
filler_28,25,18.086383333333334,0,,weekend.,1,,,51,223
filler_11,0,18.086383333333334,0,,I,1,,,52,221
filler_11,1,18.086383333333334,0,,turned,1,,,52,210
filler_11,2,18.086383333333334,0,,on,1,,,52,246
filler_11,3,18.086383333333334,0,,my,1,,,52,210
filler_11,4,18.086383333333334,0,,computer,1,,,52,239
filler_11,5,18.086383333333334,0,,today,1,,,52,220
filler_11,6,18.086383333333334,0,,to,1,,,52,238
filler_11,7,18.086383333333334,0,,check,1,,,52,200
filler_11,8,18.086383333333334,0,,my,1,,,52,236
filler_11,9,18.086383333333334,0,,email.,1,,,52,223
filler_11,10,18.086383333333334,0,,I,1,,,52,201
filler_11,11,18.086383333333334,0,,have,1,,,52,243
filler_11,12,18.086383333333334,0,,been,1,,,52,198
filler_11,13,18.086383333333334,0,,waiting,1,,,52,242
filler_11,14,18.086383333333334,0,,to,1,,,52,208
filler_11,15,18.086383333333334,0,,hear,1,,,52,221
filler_11,16,18.086383333333334,0,,from,1,,,52,253
filler_11,17,18.086383333333334,0,,my,1,,,52,228
filler_11,18,18.086383333333334,0,,mother.,1,,,52,210
filler_11,19,18.086383333333334,0,,I,1,,,52,207
filler_11,20,18.086383333333334,0,,had,1,,,52,226
filler_11,21,18.086383333333334,0,,no,1,,,52,203
filler_11,22,18.086383333333334,0,,new,1,,,52,224
filler_11,23,18.086383333333334,0,,email.,1,,,52,208
tourists_cw,0,18.086383333333334,0,,Earlier,1,,,53,249
tourists_cw,1,18.086383333333334,0,,"today,",1,,,53,213
tourists_cw,2,18.086383333333334,0,,I,1,,,53,235
tourists_cw,3,18.086383333333334,0,,passed,1,,,53,213
tourists_cw,4,18.086383333333334,0,,by,1,,,53,238
tourists_cw,5,18.086383333333334,0,,a,1,,,53,206
tourists_cw,6,18.086383333333334,0,,group,1,,,53,218
tourists_cw,7,18.086383333333334,0,,of,1,,,53,216
tourists_cw,8,18.086383333333334,0,,tourists,1,,,53,231
tourists_cw,9,18.086383333333334,0,,looking,1,,,53,213
tourists_cw,10,18.086383333333334,0,,at,1,,,53,226
tourists_cw,11,18.086383333333334,0,,sights,1,,,53,236
tourists_cw,12,18.086383333333334,0,,downtown.,1,,,53,205
tourists_cw,13,18.086383333333334,0,,Some,1,,,53,224
tourists_cw,14,18.086383333333334,0,,of,1,,,53,244
tourists_cw,15,18.086383333333334,0,,tourists,1,,,53,266
tourists_cw,16,18.086383333333334,0,,got,1,,,53,287
tourists_cw,17,18.086383333333334,0,,soaked,1,,,53,216
tourists_cw,18,18.086383333333334,0,,by,1,,,53,261
tourists_cw,19,18.086383333333334,0,,the,1,,,53,228
tourists_cw,20,18.086383333333334,0,,rain,1,,,53,222
tourists_cw,21,18.086383333333334,0,,storm.,1,,,53,223
tourists_cw,22,18.086383333333334,0,,In,1,,,53,238
tourists_cw,23,18.086383333333334,0,,"fact,",1,,,53,246
tourists_cw,24,18.086383333333334,0,,they,1,,,53,223
tourists_cw,25,18.086383333333334,0,,all,1,,,53,223
tourists_cw,26,18.086383333333334,0,,did,1,,,53,237
tourists_cw,27,18.086383333333334,0,,because,1,,,53,213
tourists_cw,28,18.086383333333334,0,,they,1,,,53,251
tourists_cw,29,18.086383333333334,0,,had,1,,,53,246
tourists_cw,30,18.086383333333334,0,,forgotten,1,,,53,246
tourists_cw,31,18.086383333333334,0,,their,1,,,53,278
tourists_cw,32,18.086383333333334,0,,umbrellas.,1,,,53,243
filler_18,0,18.086383333333334,0,,Today,0,,,54,213
filler_18,1,18.086383333333334,0,,I,0,,,54,219
filler_18,2,18.086383333333334,0,,declared,0,,,54,255
filler_18,3,18.086383333333334,0,,a,0,,,54,184
filler_18,4,18.086383333333334,0,,major,0,,,54,271
filler_18,5,18.086383333333334,0,,in,0,,,54,210
filler_18,6,18.086383333333334,0,,Psychology.,0,,,54,206
filler_18,7,18.086383333333334,0,,I,0,,,54,239
filler_18,8,18.086383333333334,0,,am,0,,,54,251
filler_18,9,18.086383333333334,0,,also,0,,,54,226
filler_18,10,18.086383333333334,0,,interested,0,,,54,301
filler_18,11,18.086383333333334,0,,in,0,,,54,193
filler_18,12,18.086383333333334,0,,a,0,,,54,234
filler_18,13,18.086383333333334,0,,minor,0,,,54,248
filler_18,14,18.086383333333334,0,,in,0,,,54,232
filler_18,15,18.086383333333334,0,,Theatre.,0,,,54,236
filler_18,16,18.086383333333334,0,,I,0,,,54,261
filler_18,17,18.086383333333334,0,,cannot,0,,,54,221
filler_18,18,18.086383333333334,0,,do,0,,,54,264
filler_18,19,18.086383333333334,0,,more,0,,,54,261
filler_18,20,18.086383333333334,0,,than,0,,,54,236
filler_18,21,18.086383333333334,0,,one,0,,,54,231
filler_18,22,18.086383333333334,0,,major,0,,,54,220
filler_18,23,18.086383333333334,0,,and,0,,,54,246
filler_18,24,18.086383333333334,0,,minor,0,,,54,225
filler_18,25,18.086383333333334,0,,or,0,,,54,238
filler_18,26,18.086383333333334,0,,two,0,,,54,355
filler_18,27,18.086383333333334,0,,majors.,0,,,54,453
filler_23,0,18.086383333333334,0,,There,1,,,55,233
filler_23,1,18.086383333333334,0,,was,1,,,55,206
filler_23,2,18.086383333333334,0,,a,1,,,55,238
filler_23,3,18.086383333333334,0,,thunderstorm,1,,,55,249
filler_23,4,18.086383333333334,0,,today.,1,,,55,210
filler_23,5,18.086383333333334,0,,I,1,,,55,231
filler_23,6,18.086383333333334,0,,think,1,,,55,213
filler_23,7,18.086383333333334,0,,that,1,,,55,199
filler_23,8,18.086383333333334,0,,thunderstorms,1,,,55,259
filler_23,9,18.086383333333334,0,,are,1,,,55,228
filler_23,10,18.086383333333334,0,,romantic.,1,,,55,213
filler_23,11,18.086383333333334,0,,My,1,,,55,207
filler_23,12,18.086383333333334,0,,professor,1,,,55,333
filler_23,13,18.086383333333334,0,,became,1,,,55,619
filler_23,14,18.086383333333334,0,,annoyed,1,,,55,223
filler_23,15,18.086383333333334,0,,because,1,,,55,228
filler_23,16,18.086383333333334,0,,he,1,,,55,263
filler_23,17,18.086383333333334,0,,could,1,,,55,220
filler_23,18,18.086383333333334,0,,not,1,,,55,242
filler_23,19,18.086383333333334,0,,speak,1,,,55,196
filler_23,20,18.086383333333334,0,,over,1,,,55,249
filler_23,21,18.086383333333334,0,,the,1,,,55,266
filler_23,22,18.086383333333334,0,,thunder.,1,,,55,225
filler_54,0,18.086383333333334,0,,I,1,,,56,588
filler_54,1,18.086383333333334,0,,went,1,,,56,256
filler_54,2,18.086383333333334,0,,to,1,,,56,218
filler_54,3,18.086383333333334,0,,the,1,,,56,213
filler_54,4,18.086383333333334,0,,"zoo,",1,,,56,239
filler_54,5,18.086383333333334,0,,but,1,,,56,243
filler_54,6,18.086383333333334,0,,my,1,,,56,256
filler_54,7,18.086383333333334,0,,favorite,1,,,56,256
filler_54,8,18.086383333333334,0,,animals,1,,,56,295
filler_54,9,18.086383333333334,0,,were,1,,,56,276
filler_54,10,18.086383333333334,0,,all,1,,,56,240
filler_54,11,18.086383333333334,0,,asleep.,1,,,56,192
filler_54,12,18.086383333333334,0,,One,1,,,56,211
filler_54,13,18.086383333333334,0,,of,1,,,56,246
filler_54,14,18.086383333333334,0,,the,1,,,56,236
filler_54,15,18.086383333333334,0,,pandas,1,,,56,207
filler_54,16,18.086383333333334,0,,had,1,,,56,256
filler_54,17,18.086383333333334,0,,sprawled,1,,,56,241
filler_54,18,18.086383333333334,0,,out,1,,,56,215
filler_54,19,18.086383333333334,0,,on,1,,,56,204
filler_54,20,18.086383333333334,0,,a,1,,,56,209
filler_54,21,18.086383333333334,0,,rock.,1,,,56,218
filler_54,22,18.086383333333334,0,,I,1,,,56,206
filler_54,23,18.086383333333334,0,,was,1,,,56,213
filler_54,24,18.086383333333334,0,,happy,1,,,56,226
filler_54,25,18.086383333333334,0,,I'd,1,,,56,216
filler_54,26,18.086383333333334,0,,gotten,1,,,56,234
filler_54,27,18.086383333333334,0,,a,1,,,56,223
filler_54,28,18.086383333333334,0,,chance,1,,,56,218
filler_54,29,18.086383333333334,0,,to,1,,,56,206
filler_54,30,18.086383333333334,0,,see,1,,,56,239
filler_54,31,18.086383333333334,0,,"it,",1,,,56,188
filler_54,32,18.086383333333334,0,,even,1,,,56,244
filler_54,33,18.086383333333334,0,,though,1,,,56,289
filler_54,34,18.086383333333334,0,,it,1,,,56,298
filler_54,35,18.086383333333334,0,,was,1,,,56,225
filler_54,36,18.086383333333334,0,,sleeping.,1,,,56,390
parking_ls,0,18.086383333333334,0,,In,1,,,57,241
parking_ls,1,18.086383333333334,0,,the,1,,,57,198
parking_ls,2,18.086383333333334,0,,school,1,,,57,276
parking_ls,3,18.086383333333334,0,,parking,1,,,57,269
parking_ls,4,18.086383333333334,0,,"lot,",1,,,57,280
parking_ls,5,18.086383333333334,0,,I,1,,,57,246
parking_ls,6,18.086383333333334,0,,carefully,1,,,57,209
parking_ls,7,18.086383333333334,0,,inspected,1,,,57,220
parking_ls,8,18.086383333333334,0,,an,1,,,57,216
parking_ls,9,18.086383333333334,0,,old,1,,,57,206
parking_ls,10,18.086383333333334,0,,bus.,1,,,57,238
parking_ls,11,18.086383333333334,0,,Only,1,,,57,213
parking_ls,12,18.086383333333334,0,,some,1,,,57,208
parking_ls,13,18.086383333333334,0,,of,1,,,57,244
parking_ls,14,18.086383333333334,0,,its,1,,,57,216
parking_ls,15,18.086383333333334,0,,tires,1,,,57,221
parking_ls,16,18.086383333333334,0,,were,1,,,57,220
parking_ls,17,18.086383333333334,0,,flat.,1,,,57,219
parking_ls,18,18.086383333333334,0,,The,1,,,57,225
parking_ls,19,18.086383333333334,0,,others,1,,,57,206
parking_ls,20,18.086383333333334,0,,were,1,,,57,234
parking_ls,21,18.086383333333334,0,,fine,1,,,57,225
parking_ls,22,18.086383333333334,0,,so,1,,,57,232
parking_ls,23,18.086383333333334,0,,it,1,,,57,233
parking_ls,24,18.086383333333334,0,,would,1,,,57,246
parking_ls,25,18.086383333333334,0,,not,1,,,57,240
parking_ls,26,18.086383333333334,0,,cost,1,,,57,231
parking_ls,27,18.086383333333334,0,,too,1,,,57,256
parking_ls,28,18.086383333333334,0,,much,1,,,57,241
parking_ls,29,18.086383333333334,0,,to,1,,,57,235
parking_ls,30,18.086383333333334,0,,fix,1,,,57,219
parking_ls,31,18.086383333333334,0,,it.,1,,,57,301
filler_42,0,18.086383333333334,0,,I,1,,,58,216
filler_42,1,18.086383333333334,0,,was,1,,,58,233
filler_42,2,18.086383333333334,0,,having,1,,,58,226
filler_42,3,18.086383333333334,0,,a,1,,,58,348
filler_42,4,18.086383333333334,0,,"party,",1,,,58,161
filler_42,5,18.086383333333334,0,,so,1,,,58,176
filler_42,6,18.086383333333334,0,,I,1,,,58,236
filler_42,7,18.086383333333334,0,,went,1,,,58,203
filler_42,8,18.086383333333334,0,,to,1,,,58,186
filler_42,9,18.086383333333334,0,,the,1,,,58,191
filler_42,10,18.086383333333334,0,,grocery,1,,,58,194
filler_42,11,18.086383333333334,0,,store,1,,,58,198
filler_42,12,18.086383333333334,0,,to,1,,,58,209
filler_42,13,18.086383333333334,0,,buy,1,,,58,200
filler_42,14,18.086383333333334,0,,food.,1,,,58,199
filler_42,15,18.086383333333334,0,,I,1,,,58,198
filler_42,16,18.086383333333334,0,,accidentally,1,,,58,206
filler_42,17,18.086383333333334,0,,dropped,1,,,58,219
filler_42,18,18.086383333333334,0,,a,1,,,58,193
filler_42,19,18.086383333333334,0,,jar,1,,,58,188
filler_42,20,18.086383333333334,0,,of,1,,,58,194
filler_42,21,18.086383333333334,0,,salsa,1,,,58,181
filler_42,22,18.086383333333334,0,,on,1,,,58,181
filler_42,23,18.086383333333334,0,,the,1,,,58,194
filler_42,24,18.086383333333334,0,,floor.,1,,,58,191
filler_42,25,18.086383333333334,0,,It,1,,,58,196
filler_42,26,18.086383333333334,0,,splashed,1,,,58,191
filler_42,27,18.086383333333334,0,,all,1,,,58,196
filler_42,28,18.086383333333334,0,,over,1,,,58,191
filler_42,29,18.086383333333334,0,,the,1,,,58,184
filler_42,30,18.086383333333334,0,,pants,1,,,58,191
filler_42,31,18.086383333333334,0,,I,1,,,58,188
filler_42,32,18.086383333333334,0,,was,1,,,58,206
filler_42,33,18.086383333333334,0,,planning,1,,,58,206
filler_42,34,18.086383333333334,0,,to,1,,,58,234
filler_42,35,18.086383333333334,0,,wear,1,,,58,358
filler_42,36,18.086383333333334,0,,at,1,,,58,230
filler_42,37,18.086383333333334,0,,the,1,,,58,231
filler_42,38,18.086383333333334,0,,party.,1,,,58,216
filler_64,0,18.086383333333334,0,,As,1,,,59,218
filler_64,1,18.086383333333334,0,,the,1,,,59,199
filler_64,2,18.086383333333334,0,,editor,1,,,59,215
filler_64,3,18.086383333333334,0,,of,1,,,59,188
filler_64,4,18.086383333333334,0,,the,1,,,59,191
filler_64,5,18.086383333333334,0,,"newspaper,",1,,,59,198
filler_64,6,18.086383333333334,0,,I,1,,,59,193
filler_64,7,18.086383333333334,0,,have,1,,,59,373
filler_64,8,18.086383333333334,0,,to,1,,,59,216
filler_64,9,18.086383333333334,0,,make,1,,,59,205
filler_64,10,18.086383333333334,0,,sure,1,,,59,191
filler_64,11,18.086383333333334,0,,that,1,,,59,205
filler_64,12,18.086383333333334,0,,the,1,,,59,208
filler_64,13,18.086383333333334,0,,paper,1,,,59,189
filler_64,14,18.086383333333334,0,,does,1,,,59,190
filler_64,15,18.086383333333334,0,,not,1,,,59,191
filler_64,16,18.086383333333334,0,,publish,1,,,59,228
filler_64,17,18.086383333333334,0,,anything,1,,,59,198
filler_64,18,18.086383333333334,0,,that,1,,,59,210
filler_64,19,18.086383333333334,0,,is,1,,,59,233
filler_64,20,18.086383333333334,0,,offensive.,1,,,59,188
filler_64,21,18.086383333333334,0,,"Unfortunately,",1,,,59,196
filler_64,22,18.086383333333334,0,,a,1,,,59,208
filler_64,23,18.086383333333334,0,,disgruntled,1,,,59,479
filler_64,24,18.086383333333334,0,,writer,1,,,59,187
filler_64,25,18.086383333333334,0,,slipped,1,,,59,288
filler_64,26,18.086383333333334,0,,a,1,,,59,249
filler_64,27,18.086383333333334,0,,racial,1,,,59,261
filler_64,28,18.086383333333334,0,,slur,1,,,59,226
filler_64,29,18.086383333333334,0,,into,1,,,59,266
filler_64,30,18.086383333333334,0,,an,1,,,59,251
filler_64,31,18.086383333333334,0,,article,1,,,59,264
filler_64,32,18.086383333333334,0,,last,1,,,59,286
filler_64,33,18.086383333333334,0,,week.,1,,,59,215
filler_64,34,18.086383333333334,0,,I,1,,,59,224
filler_64,35,18.086383333333334,0,,issued,1,,,59,247
filler_64,36,18.086383333333334,0,,a,1,,,59,244
filler_64,37,18.086383333333334,0,,long,1,,,59,248
filler_64,38,18.086383333333334,0,,apology,1,,,59,204
filler_64,39,18.086383333333334,0,,on,1,,,59,238
filler_64,40,18.086383333333334,0,,the,1,,,59,231
filler_64,41,18.086383333333334,0,,front,1,,,59,281
filler_64,42,18.086383333333334,0,,page,1,,,59,219
filler_64,43,18.086383333333334,0,,of,1,,,59,440
filler_64,44,18.086383333333334,0,,the,1,,,59,184
filler_64,45,18.086383333333334,0,,paper,1,,,59,310
filler_64,46,18.086383333333334,0,,the,1,,,59,267
filler_64,47,18.086383333333334,0,,next,1,,,59,242
filler_64,48,18.086383333333334,0,,day.,1,,,59,392
filler_30,0,18.086383333333334,0,,Each,1,,,60,226
filler_30,1,18.086383333333334,0,,weekend,1,,,60,215
filler_30,2,18.086383333333334,0,,I,1,,,60,248
filler_30,3,18.086383333333334,0,,do,1,,,60,241
filler_30,4,18.086383333333334,0,,my,1,,,60,276
filler_30,5,18.086383333333334,0,,laundry.,1,,,60,264
filler_30,6,18.086383333333334,0,,I,1,,,60,273
filler_30,7,18.086383333333334,0,,have,1,,,60,216
filler_30,8,18.086383333333334,0,,sports,1,,,60,220
filler_30,9,18.086383333333334,0,,practice,1,,,60,213
filler_30,10,18.086383333333334,0,,each,1,,,60,243
filler_30,11,18.086383333333334,0,,week.,1,,,60,208
filler_30,12,18.086383333333334,0,,My,1,,,60,213
filler_30,13,18.086383333333334,0,,uniform,1,,,60,234
filler_30,14,18.086383333333334,0,,gets,1,,,60,218
filler_30,15,18.086383333333334,0,,sweaty,1,,,60,253
filler_30,16,18.086383333333334,0,,and,1,,,60,208
filler_30,17,18.086383333333334,0,,dirty,1,,,60,221
filler_30,18,18.086383333333334,0,,if,1,,,60,208
filler_30,19,18.086383333333334,0,,I,1,,,60,246
filler_30,20,18.086383333333334,0,,wear,1,,,60,215
filler_30,21,18.086383333333334,0,,it,1,,,60,209
filler_30,22,18.086383333333334,0,,only,1,,,60,233
filler_30,23,18.086383333333334,0,,once.,1,,,60,248
filler_2,0,18.086383333333334,0,,Tonight,1,,,61,209
filler_2,1,18.086383333333334,0,,I,1,,,61,221
filler_2,2,18.086383333333334,0,,will,1,,,61,245
filler_2,3,18.086383333333334,0,,watch,1,,,61,251
filler_2,4,18.086383333333334,0,,my,1,,,61,266
filler_2,5,18.086383333333334,0,,favorite,1,,,61,263
filler_2,6,18.086383333333334,0,,television,1,,,61,208
filler_2,7,18.086383333333334,0,,show.,1,,,61,304
filler_2,8,18.086383333333334,0,,It,1,,,61,218
filler_2,9,18.086383333333334,0,,is,1,,,61,295
filler_2,10,18.086383333333334,0,,about,1,,,61,193
filler_2,11,18.086383333333334,0,,people,1,,,61,237
filler_2,12,18.086383333333334,0,,who,1,,,61,283
filler_2,13,18.086383333333334,0,,travel,1,,,61,172
filler_2,14,18.086383333333334,0,,through,1,,,61,251
filler_2,15,18.086383333333334,0,,time,1,,,61,233
filler_2,16,18.086383333333334,0,,in,1,,,61,228
filler_2,17,18.086383333333334,0,,a,1,,,61,247
filler_2,18,18.086383333333334,0,,telephone,1,,,61,233
filler_2,19,18.086383333333334,0,,box.,1,,,61,233
filler_2,20,18.086383333333334,0,,They,1,,,61,236
filler_2,21,18.086383333333334,0,,have,1,,,61,211
filler_2,22,18.086383333333334,0,,a,1,,,61,213
filler_2,23,18.086383333333334,0,,robot,1,,,61,246
filler_2,24,18.086383333333334,0,,dog.,1,,,61,372
filler_40,0,18.086383333333334,0,,My,1,,,62,219
filler_40,1,18.086383333333334,0,,friend,1,,,62,218
filler_40,2,18.086383333333334,0,,told,1,,,62,214
filler_40,3,18.086383333333334,0,,me,1,,,62,265
filler_40,4,18.086383333333334,0,,that,1,,,62,181
filler_40,5,18.086383333333334,0,,my,1,,,62,88
filler_40,6,18.086383333333334,0,,favorite,1,,,62,390
filler_40,7,18.086383333333334,0,,band,1,,,62,231
filler_40,8,18.086383333333334,0,,was,1,,,62,196
filler_40,9,18.086383333333334,0,,giving,1,,,62,256
